host_timestamp_ns,device_timestamp,sequence,gyro_raw_x,gyro_raw_y,gyro_raw_z,accel_raw_x,accel_raw_y,accel_raw_z,gyro_x,gyro_y,gyro_z,accel_x,accel_y,accel_z
123057143605200,4156389936190,18,-11424,-160,-1984,-20480,202944,496768,,,,,,
123057143617000,4156390937106,19,-11744,224,-2976,-20864,202816,494656,,,,,,
123057144317700,4156391942898,20,-11872,224,-3488,-18624,203520,496064,,,,,,
123057145067200,4156392937856,21,-11456,832,-3040,-19904,202240,495296,,,,,,
123057146062200,4156393938898,22,-12000,288,-3168,-22144,203008,494784,,,,,,
123057147065200,4156394939815,23,-11776,704,-3520,-22016,202816,493120,,,,,,
123057148070500,4156395936190,24,-10784,320,-3488,-20224,203648,494784,,,,,,
123057149279800,4156396936148,25,-11040,608,-3936,-20352,201920,492672,,,,,,
123057150059500,4156397936065,26,-10720,608,-3616,-19968,203200,492608,,,,,,
123057151054100,4156398936315,27,-10432,768,-3840,-19072,199424,492608,,,,,,
123057152053800,4156399936315,28,-10624,1248,-4224,-21184,203136,493952,,,,,,
123057153230400,4156400936898,29,-10112,1344,-4320,-18304,202304,493248,,,,,,
123057154075900,4156401937898,30,-10208,1184,-4160,-17856,201856,493248,,,,,,
123057155061600,4156402937231,31,-9792,704,-4352,-20480,201472,493248,,,,,,
123057156058800,4156403936148,32,-9376,1568,-4864,-19968,201408,493440,,,,,,
123057157065300,4156404936690,33,-9920,1568,-4608,-17984,202688,493760,,,,,,
123057158091300,4156405936106,34,-9536,1152,-5280,-19200,201792,494208,,,,,,
123057159070200,4156406936231,35,-9952,1696,-4800,-19008,202560,492864,,,,,,
123057160069400,4156407936190,36,-9728,1536,-4896,-20160,201280,491584,,,,,,
123057161575100,4156408935940,37,-9184,1920,-5696,-20992,203264,491648,,,,,,
123057162078700,4156409936440,38,-9824,1504,-6080,-19520,200704,490560,,,,,,
123057163075300,4156410936690,39,-8544,1984,-5152,-19712,200448,492416,,,,,,
123057164064100,4156411936440,40,-8960,1568,-5472,-19136,201664,491840,,,,,,
123057165068300,4156412936148,41,-8544,2080,-5792,-17600,204096,493632,,,,,,
123057166067600,4156413936273,42,-8672,2208,-5280,-19200,200896,490624,,,,,,
123057167066400,4156414936273,43,-8256,2048,-5536,-17856,202688,492800,,,,,,
123057168070900,4156415936065,44,-7712,2592,-5696,-17664,201664,493440,,,,,,
123057169244600,4156416936273,45,-7968,2624,-5632,-18368,202624,490112,,,,,,
123057170076100,4156417937690,46,-7360,2592,-5088,-20032,203200,491008,,,,,,
123057171063700,4156418936190,47,-8000,3392,-5600,-16896,202880,487872,,,,,,
123057172060400,4156419936190,48,-6848,3104,-5632,-16192,202048,490304,,,,,,
123057173066700,4156420936190,49,-7072,3360,-5760,-16576,204096,490368,,,,,,
123057174068300,4156421936273,50,-7488,4192,-5984,-17856,202432,491136,,,,,,
123057175071600,4156422936148,51,-7136,4064,-6016,-18688,202688,490048,,,,,,
123057176071400,4156423938731,52,-6560,4320,-5728,-15936,203328,489472,,,,,,
123057177065600,4156424936106,53,-6560,4672,-5984,-15680,202560,490496,,,,,,
123057178069100,4156425936148,54,-7360,5440,-6144,-17344,202880,490816,,,,,,
123057179070400,4156426936273,55,-6208,4896,-5568,-17472,202944,488576,,,,,,
123057180154800,4156427936190,56,-6144,5312,-5440,-16064,203712,490752,,,,,,
123057181070600,4156428936231,57,-5856,5984,-5376,-17408,203776,491392,,,,,,
123057182067500,4156429936231,58,-5984,6112,-5696,-14400,203520,491648,,,,,,
123057183064700,4156430936190,59,-5440,6560,-5888,-16896,204288,491328,,,,,,
123057184070800,4156431936190,60,-5728,6784,-5728,-17152,205824,491520,,,,,,
123057185069700,4156432936148,61,-5248,6656,-5344,-16064,205568,491648,,,,,,
123057186315100,4156433939606,62,-4128,7200,-5536,-15744,204352,492480,,,,,,
123057187076900,4156434936190,63,-4544,7072,-5728,-14400,203456,492224,,,,,,
123057188065100,4156435935940,64,-5312,7552,-5600,-14848,206464,492416,,,,,,
123057189066000,4156436936356,65,-4416,8000,-5184,-16320,206016,494336,,,,,,
123057190068000,4156437936106,66,-4352,8000,-5568,-13312,205440,492928,,,,,,
123057191109200,4156438936106,67,-4608,8096,-5536,-14400,205568,494336,,,,,,
123057192078200,4156439935940,68,-4160,8096,-5120,-16832,207424,493184,,,,,,
123057193064300,4156440938731,69,-5088,8416,-5216,-15104,206656,495488,,,,,,
123057194147100,4156441936315,70,-4736,9056,-5792,-14720,206400,495040,,,,,,
123057195069600,4156442936065,71,-3904,8352,-5120,-17536,205760,495808,,,,,,
123057196069900,4156443936273,72,-4032,9216,-5024,-13248,207360,495552,,,,,,
123057197064400,4156444936356,73,-4064,9024,-4928,-14080,207232,495552,,,,,,
123057198068900,4156445936106,74,-3552,8736,-4512,-15616,207360,494720,,,,,,
123057199066200,4156446936106,75,-4224,9376,-4832,-16512,206144,497024,,,,,,
123057200071200,4156447936065,76,-4384,9344,-4192,-16064,207936,495424,,,,,,
123057201065400,4156448936190,77,-3616,9280,-4064,-15616,207424,497216,,,,,,
123057202072300,4156449936065,78,-3648,9248,-4384,-14656,208512,496768,,,,,,
123057203067300,4156450936023,79,-3872,9152,-3680,-15872,208384,497216,,,,,,
123057204071900,4156451936398,80,-3712,9280,-3808,-14784,210624,498048,,,,,,
123057205066100,4156452936190,81,-4384,9920,-4288,-15616,207936,497280,,,,,,
123057206063000,4156453936148,82,-3904,9696,-4352,-15936,208192,497280,,,,,,
123057207067100,4156454936065,83,-3232,9440,-3872,-17344,209216,498688,,,,,,
123057208066900,4156455940690,84,-4000,10016,-3520,-17536,208128,496640,,,,,,
123057209068100,4156456936231,85,-4096,10112,-3968,-17536,208128,497728,,,,,,
123057210068500,4156457936065,86,-3360,10144,-3104,-18240,207552,498112,,,,,,
123057211062500,4156458936440,87,-4320,10464,-4160,-16768,209088,498112,,,,,,
123057212071500,4156459943440,88,-3712,10464,-3296,-17408,208768,498944,,,,,,
123057213066600,4156460936231,89,-4032,10368,-3008,-16384,208320,500800,,,,,,
123057214064600,4156461936148,90,-4064,10016,-2720,-17024,208704,499520,,,,,,
123057215067300,4156462935981,91,-3424,10080,-2656,-16896,209600,498944,,,,,,
123057216071000,4156463936273,92,-4480,10560,-2752,-17024,210304,501248,,,,,,
123057217071400,4156464937606,93,-4288,10720,-3008,-17024,210752,501376,,,,,,
123057218067700,4156465936481,94,-4256,10816,-2880,-17024,209408,501568,,,,,,
123057219143200,4156466936065,95,-4224,10592,-2272,-17344,210304,498944,,,,,,
123057220069600,4156467936148,96,-4544,10656,-2144,-20224,210112,500416,,,,,,
123057221065100,4156468936148,97,-4832,10784,-2368,-18176,209536,499840,,,,,,
123057222065600,4156469936106,98,-4704,11168,-1856,-17344,210624,502016,,,,,,
123057223067000,4156470935898,99,-4704,10976,-2144,-17856,210688,502208,,,,,,
123057224098100,4156471936273,100,-4000,10528,-1120,-18944,210432,500608,,,,,,
123057225061400,4156472936065,101,-4864,11136,-1856,-15936,211200,502144,,,,,,
123057226063200,4156473936065,102,-5120,11072,-1792,-17600,212608,498496,,,,,,
123057227069100,4156474936148,103,-4384,10848,-1472,-17344,211840,499392,,,,,,
123057228070900,4156475936606,104,-4768,10976,-1984,-16960,210752,499328,,,,,,
123057229073600,4156476936981,105,-5152,11104,-768,-18816,211584,499520,,,,,,
123057230077900,4156477936023,106,-5536,10976,-1408,-17216,209856,500032,,,,,,
123057231068700,4156478936315,107,-5472,11072,-1248,-17408,212416,497984,,,,,,
123057232070700,4156479936148,108,-5568,11200,-1280,-17024,210368,499520,,,,,,
123057233070400,4156480936148,109,-5088,11136,-384,-16768,209984,499072,,,,,,
123057234067600,4156481936023,110,-5536,11264,-608,-17600,210816,500160,,,,,,
123057235067000,4156482936148,111,-5472,10400,-64,-16960,210688,500800,,,,,,
123057236072400,4156483936190,112,-5856,11008,128,-16384,211264,501632,,,,,,
123057237076300,4156484936023,113,-6176,10784,256,-17472,210432,499328,,,,,,
123057238078100,4156485936356,114,-6464,10720,576,-19328,210944,498688,,,,,,
123057239070800,4156486936148,115,-5920,11168,-32,-15360,210752,501632,,,,,,
123057240059700,4156487936315,116,-6560,11008,352,-15616,211776,501504,,,,,,
123057241122900,4156488936106,117,-5984,11168,608,-17728,212288,500928,,,,,,
123057242056600,4156489936148,118,-6848,11264,1312,-17216,213184,499584,,,,,,
123057243066000,4156490935856,119,-6432,11296,1088,-16384,212992,500416,,,,,,
123057244087100,4156491936023,120,-6304,11296,1632,-17856,212224,501120,,,,,,
123057245068700,4156492936065,121,-6752,11488,1120,-16832,211712,500224,,,,,,
123057246061600,4156493937356,122,-6624,10752,1632,-16896,211840,499648,,,,,,
123057247061100,4156494937481,123,-7040,10976,2080,-17024,210624,500544,,,,,,
123057248060400,4156495936106,124,-7648,10720,1504,-15616,211392,499392,,,,,,
123057249069500,4156496935940,125,-7648,10784,1984,-16960,211328,499264,,,,,,
123057250071600,4156497936190,126,-7136,11392,2080,-17344,211776,501056,,,,,,
123057251061300,4156498936231,127,-6880,11360,1760,-16768,211328,500288,,,,,,
123057252054400,4156499936606,128,-7712,11008,2656,-15616,211584,501504,,,,,,
123057253061400,4156500937690,129,-8480,10944,2624,-19008,210176,501632,,,,,,
123057254072000,4156501936231,130,-8608,11008,3040,-18816,210624,501056,,,,,,
123057255055000,4156502935815,131,-8416,11232,3136,-18048,210112,502336,,,,,,
123057256049400,4156503936190,132,-7904,11296,2880,-19904,212032,500992,,,,,,
123057257115800,4156504936231,133,-7488,10752,3744,-18688,213184,501888,,,,,,
123057258068800,4156505936190,134,-8480,10944,3776,-16704,211712,503488,,,,,,
123057259067000,4156506936148,135,-8928,11328,3776,-17664,210048,502976,,,,,,
123057260071600,4156507936065,136,-8832,10720,3808,-18112,211520,501632,,,,,,
123057261072000,4156508936315,137,-9952,10848,3680,-18304,210944,502464,,,,,,
123057262062900,4156509940023,138,-9696,10208,4576,-20160,209984,504000,,,,,,
123057263052300,4156510937023,139,-9728,10208,3680,-19776,211712,502016,,,,,,
123057264055700,4156511936065,140,-10336,10048,5184,-19136,211584,502848,,,,,,
123057265063100,4156512935898,141,-10336,10432,4960,-17600,210752,504960,,,,,,
123057266062600,4156513936315,142,-10752,9824,5504,-18496,212736,504256,,,,,,
123057267065200,4156514936106,143,-10464,9792,5408,-18496,211392,505472,,,,,,
123057268066000,4156515936065,144,-10944,9344,5792,-20032,211008,503168,,,,,,
123057269244300,4156516936190,145,-11712,9440,5088,-17088,212608,501888,,,,,,
123057270070100,4156517936190,146,-11776,9472,6048,-18240,212672,500288,,,,,,
123057271074400,4156518936065,147,-12096,9696,5952,-18880,210944,501120,,,,,,
123057272076800,4156519935940,148,-12448,9600,5888,-18688,212032,502464,,,,,,
123057273063400,4156520937356,149,-11968,8864,6560,-18752,211520,503232,,,,,,
123057274062700,4156521936190,150,-12608,8928,6304,-19072,212544,500224,,,,,,
123057275069000,4156522936065,151,-13056,8960,7200,-17536,211072,501504,,,,,,
123057276067200,4156523936231,152,-13280,8544,6912,-18304,211520,500928,,,,,,
123057277069900,4156524936190,153,-13536,8800,7040,-17728,211840,499456,,,,,,
123057278075600,4156525936981,154,-12928,8576,6720,-18112,211776,499392,,,,,,
123057279088500,4156526935940,155,-13632,9056,6528,-18560,211904,501568,,,,,,
123057280073600,4156527936356,156,-14048,8256,6720,-18688,211328,498368,,,,,,
123057281064500,4156528936315,157,-14496,8640,8160,-18048,211264,499392,,,,,,
123057282065000,4156529936106,158,-13376,8512,7808,-18048,211200,497408,,,,,,
123057283065600,4156530938106,159,-14176,8544,7296,-18944,210624,496448,,,,,,
123057284071900,4156531936273,160,-14560,8640,7264,-17280,211584,498368,,,,,,
123057285068800,4156532936273,161,-14304,8192,7968,-18944,210880,496832,,,,,,
123057286063900,4156533936648,162,-14400,8032,7872,-17792,212288,495296,,,,,,
123057287081200,4156534936148,163,-14624,8160,8544,-17856,210304,495296,,,,,,
123057288072000,4156535939315,164,-14368,8480,7680,-18496,210368,495488,,,,,,
123057289065400,4156536936065,165,-13728,8032,8768,-19200,210816,494912,,,,,,
123057290107800,4156537936065,166,-14880,8512,8320,-18944,208896,493824,,,,,,
123057291064900,4156538935940,167,-15136,7968,8672,-18816,211200,495232,,,,,,
123057292070700,4156539936565,168,-14912,8416,8672,-19200,210304,491840,,,,,,
123057293067400,4156540937981,169,-14272,8096,8736,-19840,210752,495040,,,,,,
123057294174900,4156541935898,170,-14400,8224,9184,-17216,210048,492544,,,,,,
123057295066800,4156542936315,171,-14400,7776,9376,-20224,208640,492352,,,,,,
123057296072400,4156543936148,172,-13920,7776,9152,-20160,208064,491264,,,,,,
123057297075300,4156544936940,173,-13920,7840,8320,-18688,209792,491712,,,,,,
123057298064900,4156545936148,174,-13856,8000,9920,-19520,206848,492352,,,,,,
123057299066900,4156546937148,175,-14080,7904,9280,-19904,207616,492992,,,,,,
123057300069200,4156547937731,176,-14112,7872,9856,-19840,208064,492928,,,,,,
123057301065800,4156548936023,177,-14432,7616,9632,-18688,208000,492096,,,,,,
123057302065900,4156549935940,178,-14368,7488,9792,-19136,209088,491520,,,,,,
123057303063600,4156550938356,179,-13952,7936,9792,-18304,208256,488512,,,,,,
123057304068000,4156551936106,180,-13184,7520,9408,-19072,208128,490880,,,,,,
123057305088200,4156552936315,181,-13280,7552,10368,-19648,208768,487808,,,,,,
123057306074200,4156553937398,182,-13728,7872,10432,-20800,209984,488960,,,,,,
123057307064300,4156554936273,183,-12896,7744,10208,-20032,208320,489024,,,,,,
123057308060200,4156555936190,184,-12960,7520,10080,-21760,209408,489664,,,,,,
123057309073800,4156556936023,185,-12480,7776,10720,-20480,207808,488640,,,,,,
123057310080700,4156557935981,186,-13184,7648,10048,-19712,208448,489856,,,,,,
123057311057400,4156558936398,187,-12768,7680,9984,-21440,207680,491584,,,,,,
123057312080000,4156559937773,188,-12480,8000,10304,-21376,206400,487552,,,,,,
123057313062100,4156560936065,189,-11648,7552,9920,-20672,207808,488128,,,,,,
123057314062400,4156561936231,190,-12544,9120,9600,-21632,207360,486976,,,,,,
123057315063000,4156562936190,191,-11744,8448,10432,-21824,207488,488832,,,,,,
123057316062600,4156563936190,192,-11136,8480,10368,-21824,207424,489472,,,,,,
123057317065000,4156564936148,193,-11616,8736,10240,-20352,208128,488960,,,,,,
123057318065400,4156565937731,194,-11392,8736,9664,-19584,208320,487680,,,,,,
123057319165800,4156566936148,195,-11168,9152,9536,-22144,207232,487552,,,,,,
123057320068700,4156567936231,196,-11136,9184,10400,-21568,207552,485184,,,,,,
123057321065400,4156568936065,197,-9888,9088,10464,-21632,206272,488192,,,,,,
123057322063600,4156569936440,198,-9408,9440,10208,-20544,206336,488832,,,,,,
123057323102800,4156570936315,199,-10080,9280,9984,-22912,207104,486656,,,,,,
123057324063500,4156571936106,200,-9536,9312,9920,-22528,206144,486784,,,,,,
123057325066400,4156572937690,201,-9632,9440,9952,-22592,205760,485632,,,,,,
123057326066300,4156573936231,202,-9056,9856,9568,-21376,208000,485952,,,,,,
123057327065700,4156574936273,203,-9248,9248,10208,-22976,205760,487232,,,,,,
123057328071600,4156575936190,204,-8544,9408,10432,-21824,206272,486208,,,,,,
123057329068800,4156576935898,205,-8640,9728,9984,-21056,207360,487872,,,,,,
123057330068100,4156577936315,206,-8288,10176,9664,-21184,206016,488000,,,,,,
123057331071200,4156578936106,207,-8000,9504,10176,-21952,206784,485632,,,,,,
123057332065000,4156579936148,208,-6976,9920,9504,-23360,205824,485696,,,,,,
123057333063300,4156580936273,209,-7264,9760,9792,-22848,205248,486336,,,,,,
123057334067700,4156581936190,210,-7744,9312,9504,-21248,204352,488000,,,,,,
123057335070900,4156582937023,211,-6880,9760,9568,-22080,204288,487488,,,,,,
123057336070400,4156583935940,212,-6656,9824,9632,-22656,205120,488256,,,,,,
123057337069300,4156584936315,213,-5824,9216,9152,-23616,205504,486784,,,,,,
123057338067200,4156585936190,214,-5856,9184,9248,-23616,205184,488512,,,,,,
123057339068200,4156586941106,215,-5024,9280,9376,-23296,204864,487168,,,,,,
123057340069400,4156587936148,216,-5600,9440,9152,-22400,206784,487872,,,,,,
123057341067000,4156588937690,217,-4736,9056,8960,-23424,205568,484928,,,,,,
123057342065200,4156589936065,218,-4128,9248,8832,-24384,204288,485952,,,,,,
123057343065100,4156590936315,219,-4640,9120,7808,-25856,204480,487936,,,,,,
123057344077200,4156591936856,220,-4224,8544,8320,-24960,204608,487360,,,,,,
123057345072900,4156592936190,221,-3712,8768,8320,-24192,205184,486848,,,,,,
123057346081100,4156593936315,222,-3648,8576,8096,-25024,204032,488000,,,,,,
123057347067800,4156594937440,223,-3744,8704,7936,-25664,204416,488256,,,,,,
123057348062900,4156595936106,224,-2912,8384,7456,-25024,203968,488768,,,,,,
123057349155200,4156596936315,225,-2880,8288,8032,-25216,205184,488448,,,,,,
123057350060100,4156597936356,226,-2080,7776,7040,-26752,204288,488256,,,,,,
123057351055000,4156598936023,227,-1536,8064,7264,-26880,203328,489024,,,,,,
123057352064100,4156599936356,228,-1952,7936,6528,-29376,203648,488256,,,,,,
123057353067000,4156600939065,229,-1632,7968,6464,-26688,204160,488576,,,,,,
123057354062600,4156601939898,230,-1344,7744,6592,-27200,202752,488512,,,,,,
123057355054000,4156602937773,231,-512,7776,6080,-28032,202304,487232,,,,,,
123057356092800,4156603936273,232,-352,7392,5696,-26240,204672,489408,,,,,,
123057357303300,4156604936231,233,-416,7584,5728,-28224,203392,487232,,,,,,
123057358069800,4156605936273,234,416,7776,5248,-27520,205504,487424,,,,,,
123057359060200,4156606936023,235,256,7616,5120,-29248,204096,487552,,,,,,
123057360055300,4156607936315,236,800,7808,5152,-28992,206592,488768,,,,,,
123057361085500,4156608936023,237,1280,7072,4672,-28736,204608,489856,,,,,,
123057362079800,4156609943148,238,608,7968,4320,-28096,205376,491648,,,,,,
123057363071700,4156610936106,239,1408,7520,4352,-28608,204224,491264,,,,,,
123057364067800,4156611938898,240,1824,7648,3744,-28224,205696,489728,,,,,,
123057365069200,4156612936731,241,1952,7264,4352,-28544,205248,489792,,,,,,
123057366066600,4156613936023,242,1856,6720,3360,-28992,205568,488384,,,,,,
123057367067400,4156614936065,243,2592,7456,2848,-30720,205376,492032,,,,,,
123057368067300,4156615936190,244,2432,6848,3296,-26880,205184,492672,,,,,,
123057369171900,4156616936065,245,2240,6496,2560,-29056,205632,493504,,,,,,
123057370153900,4156617936023,246,3008,6560,2752,-29120,205824,492800,,,,,,
123057371084500,4156618936231,247,2720,6656,2048,-27584,206720,493888,,,,,,
123057372067000,4156619936273,248,2624,6304,2304,-28160,206016,495552,,,,,,
123057373068100,4156620936231,249,2016,6272,1568,-29248,205760,497792,,,,,,
123057374069400,4156621936148,250,2752,6016,1152,-26944,208576,497344,,,,,,
123057375129200,4156622936231,251,3008,5952,896,-27840,207296,497152,,,,,,
123057376067500,4156623936231,252,2272,6048,448,-28416,206144,497728,,,,,,
123057377067100,4156624936856,253,2624,5696,1600,-27392,209088,500224,,,,,,
123057378065900,4156625936023,254,2752,5888,1152,-26816,207936,500160,,,,,,
123057379078200,4156626936356,255,2176,5376,576,-29760,207296,502272,,,,,,
123057380066500,4156627936190,0,2272,5152,-32,-27008,207424,501056,,,,,,
123057381068800,4156628935731,1,1600,5280,352,-28608,209536,502784,,,,,,
123057382067500,4156629936106,2,1856,5376,96,-27456,209984,503104,,,,,,
123057383067500,4156630937606,3,1632,4832,64,-27520,210304,501376,,,,,,
123057384066900,4156631936148,4,864,5088,-640,-24640,209600,503808,,,,,,
123057385065500,4156632936106,5,800,5504,-384,-25536,209216,505344,,,,,,
123057386064700,4156633937565,6,64,5440,-1120,-26944,212480,504320,,,,,,
123057387074700,4156634936190,7,576,5280,-672,-24192,210176,505088,,,,,,
123057388070400,4156635936023,8,-128,5472,-1344,-26432,211392,504448,,,,,,
123057389114900,4156636936106,9,-608,5600,-1184,-23808,211456,504896,,,,,,
123057390057500,4156637936231,10,-416,5632,-1376,-24384,211840,507712,,,,,,
123057391069300,4156638938731,11,-960,5504,-1600,-24576,213440,506624,,,,,,
123057392077100,4156639936106,12,-1664,5312,-1472,-22336,212864,508480,,,,,,
123057393057400,4156640936106,13,-2432,6336,-2784,-23936,213568,505280,,,,,,
123057394285000,4156641936481,14,-2592,6016,-1120,-23232,215232,505920,,,,,,
123057395103000,4156642936231,15,-2944,6400,-2400,-24512,214912,508544,,,,,,
123057396081800,4156643937648,16,-3392,6496,-1664,-22720,214336,508224,,,,,,
123057397075800,4156644935981,17,-3712,6304,-2272,-21696,215488,505728,,,,,,
123057398058800,4156645936190,18,-4352,7200,-2400,-21120,216576,507904,,,,,,
123057399053500,4156646936231,19,-4544,6752,-2208,-20544,215424,507648,,,,,,
123057400052000,4156647936065,20,-5120,7488,-2144,-21568,214400,507968,,,,,,
123057401053200,4156648937898,21,-5632,7328,-2816,-23360,216192,507200,,,,,,
123057402307800,4156649936148,22,-6528,7520,-2784,-22784,215744,507200,,,,,,
123057403064400,4156650937565,23,-6752,7296,-2688,-21056,217408,504320,,,,,,
123057404059800,4156651936106,24,-7520,7584,-2432,-19264,219712,506048,,,,,,
123057405063100,4156652936065,25,-7808,7808,-2592,-21312,218816,507200,,,,,,
123057406056400,4156653936148,26,-8288,7840,-2464,-21504,216000,504512,,,,,,
123057407127800,4156654936106,27,-8864,7872,-2720,-19776,216448,503040,,,,,,
123057408058400,4156655936606,28,-9248,8576,-2880,-21056,218432,505984,,,,,,
123057409060600,4156656936315,29,-9216,7968,-2624,-20992,217280,505664,,,,,,
123057410052300,4156657936190,30,-10112,8160,-2560,-20864,217728,503680,,,,,,
123057411094100,4156658936065,31,-10464,8288,-2880,-20544,217792,503040,,,,,,
123057412084800,4156659942398,32,-11424,8320,-2688,-21056,216640,503552,,,,,,
123057413059200,4156660936731,33,-11104,8096,-2496,-19008,218048,503424,,,,,,
123057414050100,4156661936231,34,-10752,8000,-2368,-18944,218048,501888,,,,,,
123057415051600,4156662936148,35,-12096,7968,-3008,-20160,217856,501248,,,,,,
123057416165800,4156663936773,36,-12640,8768,-3136,-20096,216128,502528,,,,,,
123057417164400,4156664936690,37,-11872,8256,-2112,-19584,216384,500032,,,,,,
123057418045300,4156665935815,38,-12576,8480,-2560,-19456,216448,499904,,,,,,
123057419050500,4156666936231,39,-12352,8448,-2560,-21632,217344,501824,,,,,,
123057420062700,4156667936065,40,-12960,8320,-1856,-19776,217344,498496,,,,,,
123057421091400,4156668936190,41,-12800,8352,-2464,-22720,217472,500928,,,,,,
123057422055100,4156669936106,42,-13280,8800,-3200,-20288,217472,499136,,,,,,
123057423168300,4156670936106,43,-13408,8576,-2432,-21888,216896,498048,,,,,,
123057424201600,4156671936190,44,-12864,8512,-2560,-20672,216832,498496,,,,,,
123057425054000,4156672936190,45,-13504,8832,-2336,-21952,216064,497920,,,,,,
123057426054600,4156673936190,46,-13952,9088,-2816,-21248,215552,497920,,,,,,
123057427183000,4156674936065,47,-13184,8768,-2144,-20544,216896,496960,,,,,,
123057428080100,4156675936190,48,-13728,8576,-2336,-20992,216768,497024,,,,,,
123057429055800,4156676936231,49,-13920,8864,-1984,-20928,217152,497536,,,,,,
123057430053300,4156677936148,50,-13408,8832,-2880,-23296,216128,496640,,,,,,
123057431061900,4156678936106,51,-13920,9024,-2784,-20736,214720,498048,,,,,,
123057432063100,4156679936190,52,-13344,8576,-2560,-20608,216960,496576,,,,,,
123057433063600,4156680936273,53,-12768,8704,-2144,-22656,215744,497856,,,,,,
123057434046100,4156681936106,54,-14080,8672,-2688,-22912,216768,496768,,,,,,
123057435049200,4156682935981,55,-14752,8736,-2912,-21888,216128,497216,,,,,,
123057436075800,4156683936190,56,-13536,8672,-2304,-23296,216384,499456,,,,,,
123057437065500,4156684936106,57,-14176,8704,-2208,-24064,215872,501376,,,,,,
123057438056400,4156685936190,58,-14368,8384,-3072,-22016,213312,499968,,,,,,
123057439051800,4156686936065,59,-14240,7904,-3136,-22144,215616,499712,,,,,,
123057440050300,4156687936148,60,-14592,8032,-2656,-24448,215296,498560,,,,,,
123057441165300,4156688936106,61,-14592,7808,-2208,-22784,214592,497984,,,,,,
123057442212700,4156689936023,62,-14496,7712,-2656,-23424,213376,498624,,,,,,
123057443050700,4156690937690,63,-14848,7424,-2848,-25536,215296,500160,,,,,,
123057444146400,4156691938648,64,-14784,7168,-2496,-23680,216256,501760,,,,,,
123057445060900,4156692936023,65,-14912,7168,-3456,-22336,215232,499456,,,,,,
123057446053400,4156693936106,66,-14496,6592,-2848,-24448,213888,500544,,,,,,
123057447053300,4156694936231,67,-15008,7200,-2752,-23936,214272,501504,,,,,,
123057448058100,4156695936231,68,-15232,6432,-3072,-27008,213696,499776,,,,,,
123057449075700,4156696936065,69,-15904,6368,-3808,-26560,213888,500544,,,,,,
123057450053800,4156697935981,70,-15168,6048,-3584,-25024,213760,502144,,,,,,
123057451045400,4156698936273,71,-15520,5856,-3776,-25792,213568,500096,,,,,,
123057452047300,4156699936106,72,-16128,5440,-3616,-25792,214208,501888,,,,,,
123057453113100,4156700936231,73,-16032,5728,-4128,-25920,214592,502336,,,,,,
123057454065800,4156701936523,74,-16480,5440,-4128,-24768,213504,501056,,,,,,
123057455055200,4156702935690,75,-16224,5152,-4128,-26112,214336,502720,,,,,,
123057456051900,4156703936273,76,-16864,4928,-4160,-26112,212864,500992,,,,,,
123057457057900,4156704936065,77,-16576,4992,-4256,-25728,213248,500992,,,,,,
123057458066700,4156705936106,78,-16896,4480,-3936,-24896,214144,501824,,,,,,
123057459072100,4156706936273,79,-16960,4288,-3808,-28032,212864,501632,,,,,,
123057460057600,4156707935898,80,-17248,4384,-5056,-26688,213952,501312,,,,,,
123057461055200,4156708936065,81,-17376,3968,-5056,-26496,211648,498624,,,,,,
123057462064900,4156709936773,82,-17280,4416,-4576,-27520,212480,499008,,,,,,
123057463055600,4156710936315,83,-17152,4000,-4768,-25856,211072,500544,,,,,,
123057464055500,4156711936190,84,-17760,3776,-5536,-27520,211776,501184,,,,,,
123057465049800,4156712937481,85,-17760,3744,-4768,-26560,212480,498752,,,,,,
123057466068400,4156713936773,86,-17664,3264,-4480,-27264,211584,498048,,,,,,
123057467068000,4156714936231,87,-18336,3744,-5536,-26112,210432,497280,,,,,,
123057468064600,4156715936190,88,-18112,3328,-6240,-26048,209984,497088,,,,,,
123057469240400,4156716936023,89,-17632,3520,-5984,-26816,210944,498624,,,,,,
123057470072300,4156717936481,90,-18048,3552,-5280,-25856,209856,496000,,,,,,
123057471066200,4156718938940,91,-17792,3264,-6208,-26944,208960,496512,,,,,,
123057472068000,4156719937398,92,-17888,3296,-6048,-26624,211008,496832,,,,,,
123057473069800,4156720936065,93,-18240,3136,-6464,-26240,209472,495040,,,,,,
123057474069300,4156721936190,94,-17856,2592,-6048,-24960,210560,493376,,,,,,
123057475070600,4156722935690,95,-18272,3232,-6688,-25920,210496,492928,,,,,,
123057476068800,4156723936190,96,-17824,3008,-6752,-25856,208512,492992,,,,,,
123057477070600,4156724935940,97,-17824,3136,-6272,-26432,208704,495360,,,,,,
123057478073100,4156725936231,98,-18080,3136,-7136,-27264,207872,494848,,,,,,
123057479074100,4156726936106,99,-17376,3232,-6016,-27392,208448,494400,,,,,,
123057480071600,4156727936106,100,-18208,3584,-6784,-24832,208000,493248,,,,,,
123057481068600,4156728936106,101,-17760,3296,-7104,-25344,209728,493248,,,,,,
123057482068300,4156729936148,102,-17440,3264,-6848,-24576,209984,494592,,,,,,
123057483067200,4156730936190,103,-17568,3296,-7392,-25280,208448,493824,,,,,,
123057484068100,4156731937440,104,-17056,3776,-7104,-24768,207552,493568,,,,,,
123057485069900,4156732937606,105,-17408,3360,-7360,-24768,209472,492608,,,,,,
123057486147200,4156733936148,106,-17600,3584,-7744,-25792,208448,491776,,,,,,
123057487068000,4156734936065,107,-17184,3936,-7328,-26304,207296,492544,,,,,,
123057488082200,4156735936065,108,-16768,3872,-7296,-24576,206976,496320,,,,,,
123057489066800,4156736937606,109,-17024,4096,-7232,-25920,206464,496448,,,,,,
123057490063600,4156737937565,110,-16864,4128,-7520,-24960,208576,496192,,,,,,
123057491066200,4156738935981,111,-16672,4256,-8064,-24320,206592,493696,,,,,,
123057492068300,4156739935940,112,-17088,3936,-7008,-24000,206848,495808,,,,,,
123057493069900,4156740936231,113,-16864,4384,-7424,-25088,207552,495616,,,,,,
123057494259000,4156741936190,114,-16416,4416,-7520,-25600,208064,496512,,,,,,
123057495069700,4156742936023,115,-16864,4576,-7360,-22144,208320,497600,,,,,,
123057496063400,4156743935898,116,-16416,4384,-7296,-23744,207552,496256,,,,,,
123057497070300,4156744936190,117,-16480,4672,-7616,-24768,207232,496832,,,,,,
123057498078100,4156745936148,118,-16672,4640,-7744,-23808,206528,500288,,,,,,
123057499053100,4156746935981,119,-16672,4832,-7520,-21824,206080,495424,,,,,,
123057500053200,4156747936398,120,-16704,4896,-8544,-23936,207104,497344,,,,,,
123057501062100,4156748937565,121,-16576,4672,-7616,-23296,207424,500352,,,,,,
123057502065700,4156749935690,122,-16768,4576,-7776,-22784,208000,498240,,,,,,
123057503111000,4156750937565,123,-16640,4448,-7616,-24128,208384,500736,,,,,,
123057504072500,4156751936356,124,-16736,4992,-7136,-22848,209088,500672,,,,,,
123057505071300,4156752936148,125,-16768,4416,-7616,-23808,207488,500608,,,,,,
123057506068000,4156753936231,126,-17344,4896,-7648,-24064,208320,503808,,,,,,
123057507067500,4156754935981,127,-17280,5024,-7360,-25664,206656,502144,,,,,,
123057508060300,4156755936315,128,-17216,4736,-7552,-22144,206784,501696,,,,,,
123057509065500,4156756936023,129,-17600,4672,-7584,-22336,211008,503488,,,,,,
123057510075300,4156757936148,130,-17984,4800,-7456,-22272,210176,502016,,,,,,
123057511104300,4156758935981,131,-17600,4704,-7648,-23616,209088,501120,,,,,,
123057512069900,4156759935940,132,-18944,4768,-7520,-22208,209792,503488,,,,,,
123057513062300,4156760940023,133,-18368,5280,-7424,-23616,209792,504768,,,,,,
123057514069600,4156761936106,134,-19264,4608,-6560,-23872,209600,503424,,,,,,
123057515059500,4156762935981,135,-18496,4704,-6976,-22080,210368,503936,,,,,,
123057516059700,4156763936231,136,-19040,4480,-7488,-22400,210432,501824,,,,,,
123057517057300,4156764936148,137,-19296,4736,-7136,-21184,210432,504896,,,,,,
123057518056600,4156765936065,138,-20096,4800,-7712,-23296,209792,503360,,,,,,
123057519102900,4156766935940,139,-19552,4384,-7296,-23232,210176,503680,,,,,,
123057520072400,4156767936148,140,-20224,4640,-7136,-24896,210176,504576,,,,,,
123057521062200,4156768936065,141,-20416,4608,-7392,-22336,209280,503552,,,,,,
123057522056200,4156769936023,142,-20640,4736,-6912,-22080,209280,503360,,,,,,
123057523069100,4156770936398,143,-20896,4160,-7264,-22208,208384,501888,,,,,,
123057524066300,4156771936523,144,-20960,4064,-7168,-22144,209792,502912,,,,,,
123057525067900,4156772937565,145,-21120,4352,-7136,-23872,210176,502272,,,,,,
123057526069200,4156773936106,146,-20736,4160,-6464,-20416,208064,503680,,,,,,
123057527067000,4156774936231,147,-20960,4288,-6912,-20416,208768,500800,,,,,,
123057528074200,4156775936190,148,-21664,4416,-7008,-23040,208576,501248,,,,,,
123057529068600,4156776936106,149,-21056,3808,-6464,-24320,207680,498752,,,,,,
123057530070200,4156777936398,150,-22112,4224,-6752,-23680,208704,500800,,,,,,
123057531068600,4156778936898,151,-21760,4256,-6304,-23872,210176,501376,,,,,,
123057532070700,4156779936273,152,-21504,4480,-6400,-23168,208064,498432,,,,,,
123057533069200,4156780936148,153,-21760,3968,-5824,-21952,209152,499008,,,,,,
123057534068100,4156781935981,154,-21824,4480,-6400,-22976,208896,498560,,,,,,
123057535070000,4156782936273,155,-21568,4128,-6240,-21504,207680,499264,,,,,,
123057536073900,4156783936648,156,-21280,4192,-6400,-21952,206400,496320,,,,,,
123057537068200,4156784936023,157,-22048,4736,-6432,-21184,207936,496000,,,,,,
123057538066100,4156785935898,158,-21952,4128,-5952,-21696,205184,495744,,,,,,
123057539067900,4156786936148,159,-21312,4064,-5760,-21824,206336,497472,,,,,,
123057540070800,4156787936023,160,-21632,4384,-6272,-22080,206848,494528,,,,,,
123057541068300,4156788935898,161,-21344,4608,-6208,-22912,207936,496640,,,,,,
123057542066300,4156789936148,162,-21760,4384,-6176,-21056,206912,498816,,,,,,
123057543064500,4156790936106,163,-21408,4480,-5984,-21568,206400,498432,,,,,,
123057544104100,4156791935898,164,-21056,4896,-5760,-21120,205824,495488,,,,,,
123057545067300,4156792936773,165,-21152,4512,-5536,-22592,206336,498432,,,,,,
123057546080100,4156793936231,166,-21280,4352,-6016,-23040,205824,497152,,,,,,
123057547065900,4156794936190,167,-21344,5216,-5440,-23744,204672,495040,,,,,,
123057548063700,4156795937523,168,-21088,4800,-5696,-21696,204928,494784,,,,,,
123057549089500,4156796935940,169,-21120,5376,-5696,-22272,205248,493696,,,,,,
123057550066100,4156797936315,170,-20832,5440,-5312,-22272,206272,495040,,,,,,
123057551067500,4156798936107,171,-21248,4896,-4672,-19968,205696,494208,,,,,,
123057552100500,4156799937482,172,-20640,5184,-5248,-22016,206016,494784,,,,,,
123057553074500,4156800937857,173,-20672,5408,-5184,-21376,206272,497216,,,,,,
123057554066500,4156801937023,174,-20128,4992,-4800,-20928,205696,498560,,,,,,
123057555064000,4156802937357,175,-20832,5600,-4800,-21696,204992,495744,,,,,,
123057556068600,4156803936648,176,-20640,5472,-4800,-20480,205248,497472,,,,,,
123057557072100,4156804936023,177,-19712,5120,-4032,-20608,204416,495680,,,,,,
123057558066800,4156805936148,178,-20032,5280,-4384,-23552,204800,498560,,,,,,
123057559067600,4156806936232,179,-20224,5408,-4192,-22016,203392,495872,,,,,,
123057560066100,4156807936107,180,-20480,5856,-4096,-20864,205056,499328,,,,,,
123057561073500,4156808936023,181,-19872,5856,-4672,-21184,203392,496960,,,,,,
123057562068200,4156809940107,182,-19520,5856,-4096,-21952,203008,495104,,,,,,
123057563067300,4156810936107,183,-19744,5824,-3136,-20480,205504,496128,,,,,,
123057564064500,4156811935982,184,-20192,5984,-3648,-21312,204608,498944,,,,,,
123057565065600,4156812936482,185,-19904,5760,-3616,-21760,204736,498048,,,,,,
123057566069000,4156813936107,186,-19872,6016,-3296,-20224,205056,497728,,,,,,
123057567067700,4156814936065,187,-20096,5728,-3808,-22464,206208,498432,,,,,,
123057568068200,4156815936065,188,-20384,5728,-3264,-22144,204160,497216,,,,,,
123057569122600,4156816936148,189,-19776,5952,-2048,-21568,202880,496768,,,,,,
123057570074800,4156817936357,190,-19872,5536,-3136,-20288,203072,496384,,,,,,
123057571070700,4156818936023,191,-19776,5600,-2816,-21056,203200,495296,,,,,,
123057572064400,4156819936023,192,-20416,5856,-3136,-22144,204672,496128,,,,,,
123057573136500,4156820936315,193,-20224,5824,-2688,-22592,203456,492992,,,,,,
123057574067800,4156821936065,194,-19904,5792,-2752,-20544,203648,497600,,,,,,
123057575061600,4156822936273,195,-19648,5664,-2048,-21248,202240,498496,,,,,,
123057576058900,4156823935982,196,-19712,5536,-2080,-22464,205056,497344,,,,,,
123057577154300,4156824936148,197,-19872,5824,-1984,-22080,202560,494784,,,,,,
123057578063100,4156825936148,198,-19456,5600,-2272,-23616,202304,496960,,,,,,
123057579057600,4156826936190,199,-20128,5280,-2176,-21440,201920,494720,,,,,,
123057580063100,4156827936232,200,-19808,5056,-2144,-23744,203968,497920,,,,,,
123057581068600,4156828936190,201,-19904,5280,-1728,-23552,203328,495488,,,,,,
123057582065600,4156829936107,202,-19296,4992,-800,-22464,201856,494784,,,,,,
123057583065500,4156830937232,203,-19584,5312,-1856,-25088,202176,499072,,,,,,
123057584066800,4156831936690,204,-19712,4768,-1728,-22272,204032,496704,,,,,,
123057585405400,4156832936190,205,-19392,4704,-1120,-23296,201088,493568,,,,,,
123057586096800,4156833936107,206,-19904,4736,-1856,-25408,201664,496640,,,,,,
123057587128200,4156834936107,207,-19264,4256,-1376,-23488,202624,495872,,,,,,
123057588071600,4156835936023,208,-19008,4608,-1312,-25664,202432,495232,,,,,,
123057589710200,4156836936482,209,-19104,4128,-896,-23872,201984,498176,,,,,,
123057590075000,4156837937107,210,-19360,4384,-1312,-25344,200256,496448,,,,,,
123057591068200,4156838935982,211,-19168,4032,-544,-24960,200000,496000,,,,,,
123057592069100,4156839936148,212,-18752,3456,-1056,-25792,201344,496000,,,,,,
123057593071000,4156840936148,213,-19136,3840,-704,-25408,201088,495552,,,,,,
123057594213300,4156841939107,214,-18816,3552,-704,-25536,200192,492992,,,,,,
123057595078100,4156842936065,215,-17856,3680,-1024,-24448,198976,494144,,,,,,
123057596078400,4156843936107,216,-18176,2944,256,-23872,197888,498368,,,,,,
123057597074300,4156844936148,217,-18208,3904,-352,-23552,200704,497024,,,,,,
123057598061700,4156845936273,218,-18592,3296,-1120,-25728,200256,494784,,,,,,
123057599061700,4156846936398,219,-18144,3456,-1152,-23808,198912,496192,,,,,,
123057600067000,4156847936190,220,-18208,2976,-576,-25856,200512,494848,,,,,,
123057601091200,4156848937232,221,-17920,2528,-768,-24128,198272,495680,,,,,,
123057602073800,4156849936107,222,-17984,2880,-448,-27008,200448,496768,,,,,,
123057603080200,4156850936232,223,-18016,2848,-32,-24448,199488,496832,,,,,,
123057604074400,4156851936607,224,-18176,2848,-32,-21952,200768,496896,,,,,,
123057605066900,4156852936107,225,-17344,2016,192,-26176,199296,495808,,,,,,
123057606068200,4156853935940,226,-17760,2912,-416,-22336,199616,498368,,,,,,
123057607068300,4156854937732,227,-17056,2208,544,-26112,200832,496448,,,,,,
123057608067400,4156855936107,228,-16960,2176,160,-23808,200128,496960,,,,,,
123057609065100,4156856936107,229,-17536,2432,32,-24064,199168,499200,,,,,,
123057610065000,4156857935982,230,-17696,2144,288,-25920,201280,496192,,,,,,
123057611069200,4156858936190,231,-17504,2240,480,-24384,200896,497472,,,,,,
123057612064400,4156859940440,232,-17728,1792,384,-24704,201024,500352,,,,,,
123057613067100,4156860937982,233,-17856,1760,320,-22784,201856,501568,,,,,,
123057614067400,4156861938315,234,-17760,1568,352,-26048,202112,502848,,,,,,
123057615066900,4156862936107,235,-17696,1920,960,-24192,200320,502272,,,,,,
123057616066400,4156863936023,236,-18144,1568,480,-23680,201984,502464,,,,,,
123057617106400,4156864936107,237,-18048,1760,288,-24704,202112,497408,,,,,,
123057618067700,4156865935982,238,-17120,1760,992,-22592,200832,504448,,,,,,
123057619238500,4156866936232,239,-18368,1280,64,-25216,201152,498816,,,,,,
123057620073100,4156867936065,240,-18112,1568,320,-23488,201664,502912,,,,,,
123057621069400,4156868938065,241,-18240,1376,1216,-25088,201728,502528,,,,,,
123057622196300,4156869943565,242,-18816,1344,448,-22720,200768,503680,,,,,,
123057623070100,4156870945065,243,-18592,1536,800,-24896,201984,502464,,,,,,
123057624075600,4156871943773,244,-18848,1728,224,-24960,203392,500736,,,,,,
123057625075800,4156872940940,245,-18528,1120,1696,-23104,202048,504832,,,,,,
123057626071800,4156873944773,246,-18688,1216,928,-24384,202112,504256,,,,,,
123057627198600,4156874946190,247,-19104,1664,864,-24512,200704,499264,,,,,,
123057628072900,4156875945398,248,-18720,1120,1728,-25280,201664,499584,,,,,,
123057629074200,4156876941690,249,-19168,1312,576,-26048,202624,502592,,,,,,
123057630075700,4156877940315,250,-19168,960,1216,-24384,202048,500480,,,,,,
123057631072100,4156878936773,251,-19488,576,1632,-25344,201984,500224,,,,,,
123057632073900,4156879937607,252,-20224,960,896,-25408,202880,502912,,,,,,
123057633068700,4156880943523,253,-19808,1152,1440,-25600,201856,498240,,,,,,
123057634066700,4156881938815,254,-19936,1280,1632,-23296,202304,499136,,,,,,
123057635067200,4156882945023,255,-20000,992,992,-25408,201344,501504,,,,,,
123057636071700,4156883943565,0,-19968,672,1888,-23360,201856,500928,,,,,,
123057637091200,4156884944482,1,-19744,480,1824,-24832,203200,501696,,,,,,
123057638067400,4156885939732,2,-20000,1088,1152,-23808,201728,499136,,,,,,
123057639066300,4156886938190,3,-20224,992,1792,-22976,201792,494144,,,,,,
123057640068400,4156887942690,4,-19840,800,1856,-26176,202432,497664,,,,,,
123057641069700,4156888939398,5,-19584,960,1792,-23744,200000,495808,,,,,,
123057642194600,4156889940107,6,-20672,512,1280,-25152,201024,498048,,,,,,
123057643070500,4156890938773,7,-19808,512,2016,-25216,202304,493632,,,,,,
123057644144400,4156891935940,8,-19712,192,1664,-24320,200192,497600,,,,,,
123057645075900,4156892939815,9,-19744,576,1984,-25280,201728,495872,,,,,,
123057646069300,4156893938273,10,-19648,416,992,-25536,200704,496448,,,,,,
123057647068000,4156894938815,11,-19776,704,1376,-25280,200576,496256,,,,,,
123057648067700,4156895940940,12,-19712,-64,1344,-27136,198976,495616,,,,,,
123057649065100,4156896940482,13,-19104,128,2112,-25216,200256,493248,,,,,,
123057650095300,4156897938732,14,-19904,192,992,-25472,200768,492992,,,,,,
123057651059500,4156898943190,15,-18496,832,1632,-26112,200064,496128,,,,,,
123057652192600,4156899939690,16,-19360,-192,1984,-26688,200768,497152,,,,,,
123057653063800,4156900942607,17,-18784,224,1824,-26496,199232,495744,,,,,,
123057654069900,4156901940273,18,-18304,224,1568,-26048,199616,494912,,,,,,
123057655090500,4156902940565,19,-18912,288,1120,-25216,200832,494720,,,,,,
123057656068100,4156903937148,20,-18432,-352,2112,-24448,201088,496192,,,,,,
123057657068800,4156904939607,21,-18176,-544,1792,-26752,199616,494464,,,,,,
123057658059800,4156905941732,22,-18112,-576,1568,-27136,198976,494016,,,,,,
123057659065900,4156906941565,23,-17728,-256,1920,-25408,199488,496576,,,,,,
123057660068300,4156907938190,24,-18432,-288,1856,-26112,200512,494400,,,,,,
123057661066200,4156908944482,25,-17696,-672,1152,-25344,201472,495872,,,,,,
123057662197200,4156909946357,26,-17216,-640,1376,-25472,201216,494080,,,,,,
123057663065500,4156910937815,27,-16896,-640,1920,-25600,199232,494848,,,,,,
123057664072700,4156911936857,28,-17024,-1024,1088,-26240,198400,494208,,,,,,
123057665072600,4156912942982,29,-17024,-640,1056,-25728,199360,497344,,,,,,
123057666074200,4156913945857,30,-16288,-928,1632,-25472,199360,496192,,,,,,
123057667069600,4156914940898,31,-16064,-640,1632,-27328,198208,498688,,,,,,
123057668073200,4156915943065,32,-16416,-1088,672,-25920,198976,496256,,,,,,
123057669228000,4156916938232,33,-16544,-1120,1632,-26240,198208,499456,,,,,,
123057670065700,4156917938273,34,-16992,-1056,1216,-27200,198400,495616,,,,,,
123057671445900,4156918944023,35,-16064,-1664,1312,-24704,200192,496704,,,,,,
123057672188300,4156919938982,36,-15936,-1696,1504,-26048,199232,494784,,,,,,
123057673051700,4156920942690,37,-16000,-1600,1312,-26816,199872,496384,,,,,,
123057674055900,4156921943690,38,-16064,-1696,800,-26368,199168,496192,,,,,,
123057675068300,4156922941732,39,-15616,-1600,608,-26048,198272,498496,,,,,,
123057676057100,4156923940190,40,-15424,-1856,1344,-27072,199936,497600,,,,,,
123057677052400,4156924943523,41,-15648,-1600,960,-26496,200000,495872,,,,,,
123057678592800,4156925943815,42,-15104,-2144,960,-25408,200128,495680,,,,,,
123057679073700,4156926937982,43,-15168,-1920,576,-26112,198720,493696,,,,,,
123057680059200,4156927936148,44,-15232,-2400,800,-25152,200192,496832,,,,,,
123057681061400,4156928936232,45,-14784,-2016,672,-26112,198912,498240,,,,,,
123057682057400,4156929936065,46,-14496,-2656,1056,-26432,198784,494912,,,,,,
123057683122600,4156930936232,47,-14752,-2592,384,-26496,199744,496064,,,,,,
123057684071000,4156931936190,48,-14848,-3008,256,-26624,199808,497472,,,,,,
123057685072000,4156932935982,49,-14208,-2784,864,-27072,196736,495936,,,,,,
123057686063400,4156933936023,50,-14560,-3072,-96,-23680,198016,497664,,,,,,
123057687077600,4156934936398,51,-13888,-3296,352,-27456,198016,495360,,,,,,
123057688068400,4156935936315,52,-14176,-3040,-64,-27072,198272,497024,,,,,,
123057689066400,4156936936148,53,-13280,-3232,96,-26304,197824,496576,,,,,,
123057690069000,4156937935815,54,-14016,-3488,-192,-27136,199104,497536,,,,,,
123057691068200,4156938936148,55,-13888,-3584,128,-26240,197248,492992,,,,,,
123057692068600,4156939936065,56,-13312,-3616,-192,-26432,197248,497152,,,,,,
123057693066700,4156940936148,57,-13056,-3104,-544,-26240,199360,497408,,,,,,
123057694167200,4156941935940,58,-12736,-3520,64,-26944,196544,496384,,,,,,
123057695068000,4156942936107,59,-12800,-3808,-608,-27712,197120,497408,,,,,,
123057696089900,4156943936190,60,-13056,-3648,-1216,-27264,198592,495168,,,,,,
123057697069800,4156944935982,61,-12224,-3840,-800,-27712,197952,493696,,,,,,
123057698067300,4156945935940,62,-12256,-4192,-640,-27328,197888,495744,,,,,,
123057699056100,4156946936065,63,-11904,-3776,-1216,-27008,198272,495040,,,,,,
123057700071600,4156947936065,64,-11552,-3552,-928,-27712,194944,495104,,,,,,
123057701069700,4156948936065,65,-11360,-3936,-1056,-28224,195584,494400,,,,,,
123057702070700,4156949936190,66,-12032,-3584,-1216,-27136,196736,494080,,,,,,
123057703089300,4156950936565,67,-12064,-3936,-1792,-26112,196160,496064,,,,,,
123057704069400,4156951936107,68,-10816,-4032,-1120,-27456,198080,495808,,,,,,
123057705079200,4156952936065,69,-11232,-4128,-1568,-26496,196352,493440,,,,,,
123057706070200,4156953938148,70,-10368,-3872,-1728,-27200,197440,496640,,,,,,
123057707068700,4156954936273,71,-10496,-4320,-1824,-25536,196800,494848,,,,,,
123057708066400,4156955936065,72,-10112,-3904,-1760,-25920,197312,496384,,,,,,
123057709064100,4156956935982,73,-10208,-4128,-1984,-27264,195520,491520,,,,,,
123057710068100,4156957935732,74,-10112,-4096,-2016,-27264,195712,494208,,,,,,
123057711069300,4156958937232,75,-10048,-3776,-2816,-27008,196800,495232,,,,,,
123057712108500,4156959948398,76,-9216,-4096,-2880,-27008,196672,495744,,,,,,
123057713064600,4156960936023,77,-9920,-4096,-3136,-27200,195840,494528,,,,,,
123057714059600,4156961936065,78,-9408,-3616,-2528,-26816,195264,497280,,,,,,
123057715098900,4156962938023,79,-9024,-3520,-2880,-25664,195840,496192,,,,,,
123057716110700,4156963936107,80,-9664,-3840,-2784,-25984,195200,494656,,,,,,
123057717061900,4156964935982,81,-8000,-3936,-3072,-26432,196736,497408,,,,,,
123057718061200,4156965936148,82,-8512,-3648,-3328,-25152,195904,499136,,,,,,
123057719268600,4156966936148,83,-8512,-3872,-3168,-25472,194880,498752,,,,,,
123057720081000,4156967935982,84,-8544,-4096,-3488,-26880,196352,499328,,,,,,
123057721075100,4156968935940,85,-8896,-3840,-3968,-25024,196352,497472,,,,,,
123057722058800,4156969937148,86,-7904,-4128,-3168,-25984,195136,499072,,,,,,
123057723067800,4156970936607,87,-8032,-3712,-4288,-25728,195968,496768,,,,,,
123057724065300,4156971935940,88,-7712,-3936,-4416,-24960,196608,498816,,,,,,
123057725066400,4156972936982,89,-8064,-3776,-4736,-24768,196544,498304,,,,,,
123057726071300,4156973936148,90,-7584,-3968,-4576,-25152,196480,499456,,,,,,
123057727068000,4156974936065,91,-7008,-4128,-4960,-26240,195840,499072,,,,,,
123057728070600,4156975936023,92,-7616,-3648,-5088,-25152,196928,499904,,,,,,
123057729069300,4156976936232,93,-7648,-4032,-4672,-25664,196864,499072,,,,,,
123057730065500,4156977936148,94,-7328,-4096,-5760,-25216,196864,499584,,,,,,
123057731066600,4156978936023,95,-7552,-4160,-5120,-23424,197376,499968,,,,,,
123057732067600,4156979935857,96,-7264,-3776,-5056,-25472,197376,501184,,,,,,
123057733066200,4156980936232,97,-7456,-3744,-5632,-25088,196416,497024,,,,,,
123057734065400,4156981936065,98,-7008,-3808,-5376,-23616,198400,500992,,,,,,
123057735073100,4156982936065,99,-7264,-3648,-5408,-22976,196736,499264,,,,,,
123057736056900,4156983935940,100,-7136,-4032,-5280,-25664,197248,500416,,,,,,
123057737060000,4156984936148,101,-7232,-3552,-5888,-24320,196224,497728,,,,,,
123057738073400,4156985936107,102,-6848,-3456,-5344,-23360,197632,499840,,,,,,
123057739062300,4156986935982,103,-7008,-3232,-4736,-26496,198592,501120,,,,,,
123057740060500,4156987937023,104,-6880,-3328,-6496,-24064,195904,504576,,,,,,
123057741065800,4156988936148,105,-6912,-3744,-6176,-24768,198272,500800,,,,,,
123057742071300,4156989935982,106,-7008,-3744,-5728,-25408,197248,501760,,,,,,
123057743061900,4156990936107,107,-6880,-3968,-6272,-24832,196608,500800,,,,,,
123057744082600,4156991936190,108,-7008,-3424,-6688,-22976,198144,500864,,,,,,
123057745067800,4156992937440,109,-6976,-3936,-6528,-24896,197312,502912,,,,,,
123057746066100,4156993936607,110,-7456,-3488,-7392,-25664,197696,499072,,,,,,
123057747080500,4156994935815,111,-7424,-3968,-7360,-22080,198400,499968,,,,,,
123057748070200,4156995936148,112,-7008,-4096,-7296,-25024,198080,502400,,,,,,
123057749100200,4156996936065,113,-7232,-3456,-6944,-23680,198528,502464,,,,,,
123057750071000,4156997936107,114,-7104,-3936,-7424,-24832,196992,500864,,,,,,
123057751067900,4156998935898,115,-7584,-3776,-7136,-22784,200128,499712,,,,,,
123057752066300,4156999936023,116,-7520,-3776,-8064,-25472,198336,499840,,,,,,
123057753068800,4157000939023,117,-7328,-3808,-8128,-24448,197248,504000,,,,,,
123057754055800,4157001935940,118,-7168,-4000,-7776,-24640,197376,500736,,,,,,
123057755053300,4157002936065,119,-7264,-3968,-7392,-23168,196864,502464,,,,,,
123057756052900,4157003936107,120,-7456,-3648,-8096,-23744,198656,501056,,,,,,
123057757050100,4157004935982,121,-7232,-3680,-8320,-25088,198464,502208,,,,,,
123057758052200,4157005937273,122,-7776,-3520,-7872,-24576,198208,498432,,,,,,
123057759151200,4157006935982,123,-7808,-3424,-8736,-23360,198656,500480,,,,,,
123057760086900,4157007936065,124,-7360,-3680,-8288,-23872,198848,499008,,,,,,
123057761071000,4157008936065,125,-7360,-3264,-8448,-22848,198592,501312,,,,,,
123057762070300,4157009946065,126,-7936,-3232,-8640,-22848,197440,500928,,,,,,
123057763055100,4157010938023,127,-7360,-2848,-8096,-23040,196032,499136,,,,,,
123057764054500,4157011936107,128,-7584,-2688,-8768,-21440,198592,499712,,,,,,
123057765051100,4157012936190,129,-7424,-2752,-8576,-21888,197312,497088,,,,,,
123057766158800,4157013935940,130,-7296,-3040,-9184,-23104,199808,497664,,,,,,
123057767224000,4157014936107,131,-7008,-1920,-8896,-21376,198464,499584,,,,,,
123057768052600,4157015936148,132,-7072,-2144,-8672,-22336,198848,499264,,,,,,
123057769108500,4157016935982,133,-7456,-2432,-9408,-22016,197248,499904,,,,,,
123057770065100,4157017936065,134,-6560,-2208,-8896,-23104,198656,497920,,,,,,
123057771057200,4157018936148,135,-6880,-1760,-8928,-20480,199488,499904,,,,,,
123057772053800,4157019940523,136,-7072,-1696,-8832,-21696,197568,501120,,,,,,
123057773050500,4157020936148,137,-7456,-1696,-9152,-20096,199232,502080,,,,,,
123057774049000,4157021935940,138,-7232,-1088,-8960,-20544,198016,499520,,,,,,
123057775179100,4157022936232,139,-7360,-1504,-8320,-19712,199552,498752,,,,,,
123057776058500,4157023936023,140,-6496,-1568,-8416,-18816,199232,499200,,,,,,
123057777065900,4157024937482,141,-7424,-1664,-9024,-21376,197760,499200,,,,,,
123057778061700,4157025935982,142,-7296,-1280,-9536,-19200,198528,498944,,,,,,
123057779066900,4157026936232,143,-6816,-768,-8576,-21056,199168,498944,,,,,,
123057780069000,4157027936023,144,-7168,-896,-8544,-20800,198592,499456,,,,,,
123057781067900,4157028936023,145,-6912,-1184,-8672,-19328,198976,501248,,,,,,
123057782185800,4157029935982,146,-7616,-672,-9696,-18560,199616,499328,,,,,,
123057783063000,4157030936273,147,-6432,-704,-8864,-21824,198656,501056,,,,,,
123057784059700,4157031936065,148,-7648,-768,-8864,-19584,200192,499136,,,,,,
123057785059900,4157032935982,149,-7488,-960,-9312,-19456,199488,497024,,,,,,
123057786070600,4157033936232,150,-7616,-608,-8672,-21504,200064,498368,,,,,,
123057787065300,4157034936148,151,-7552,-512,-8672,-20288,199232,501376,,,,,,
123057788066100,4157035935982,152,-7520,-896,-8320,-20288,200768,497536,,,,,,
123057789065400,4157036935898,153,-7840,-32,-9312,-20096,197760,497280,,,,,,
123057790053400,4157037936190,154,-7200,-576,-8448,-19840,198976,498048,,,,,,
123057791053200,4157038936065,155,-7776,-224,-8640,-19136,199424,502016,,,,,,
123057792067400,4157039936023,156,-7296,-704,-8032,-20608,197504,498048,,,,,,
123057793058700,4157040936107,157,-7936,-320,-8384,-20544,197888,497024,,,,,,
123057794195400,4157041936232,158,-7424,160,-8352,-22144,200064,499264,,,,,,
123057795062100,4157042936065,159,-7424,32,-7680,-20288,200000,496512,,,,,,
123057796071100,4157043936065,160,-7744,96,-8352,-19840,198144,498816,,,,,,
123057797067200,4157044935982,161,-7072,-96,-7968,-19456,198976,498048,,,,,,
123057798070600,4157045936190,162,-7776,608,-8288,-20480,200512,499328,,,,,,
123057799062800,4157046936148,163,-7392,128,-7584,-21184,199616,497920,,,,,,
123057800065500,4157047936107,164,-8032,928,-8032,-20544,198912,496256,,,,,,
123057801069700,4157048937065,165,-7392,608,-7840,-19392,199168,496832,,,,,,
123057802071400,4157049936107,166,-7392,160,-8032,-19712,197440,495680,,,,,,
123057803059300,4157050938148,167,-7552,1024,-7808,-17856,200128,495040,,,,,,
123057804060600,4157051939023,168,-7360,832,-7264,-18240,200064,500032,,,,,,
123057805082600,4157052936398,169,-7168,1248,-7872,-19648,198912,497408,,,,,,
123057806074700,4157053936065,170,-7648,768,-6720,-19200,199872,498880,,,,,,
123057807067800,4157054936065,171,-7584,1088,-7040,-20480,199104,495232,,,,,,
123057808064800,4157055936732,172,-7200,1216,-7008,-19392,199616,495808,,,,,,
123057809062200,4157056936857,173,-7008,1344,-7264,-18880,197248,497856,,,,,,
123057810071700,4157057936190,174,-7584,1312,-6528,-19072,199552,496192,,,,,,
123057811057600,4157058936315,175,-7168,1248,-7136,-17920,200832,497216,,,,,,
123057812077600,4157059938690,176,-7200,896,-6688,-18816,200192,496768,,,,,,
123057813070000,4157060938190,177,-6912,960,-6400,-19456,199616,496320,,,,,,
123057814067300,4157061935898,178,-7040,1024,-6656,-19072,197824,494656,,,,,,
123057815108800,4157062936023,179,-6816,768,-6624,-17792,199104,497472,,,,,,
123057816070400,4157063935857,180,-7072,736,-5760,-18176,200448,495168,,,,,,
123057817072600,4157064936107,181,-6592,1152,-6304,-17216,198656,496128,,,,,,
123057818071000,4157065936107,182,-7264,736,-5728,-16896,199744,497280,,,,,,
123057819065700,4157066936232,183,-6496,832,-5568,-16512,199552,495360,,,,,,
123057820065400,4157067936023,184,-6016,320,-5344,-18496,200128,495744,,,,,,
123057821070900,4157068936065,185,-6752,928,-5024,-16640,199232,494016,,,,,,
123057822072300,4157069936023,186,-6496,736,-5632,-18816,201216,496960,,,,,,
123057823074400,4157070936523,187,-6240,736,-4864,-17536,199936,497408,,,,,,
123057824061400,4157071935982,188,-6304,640,-4960,-16960,197248,495936,,,,,,
123057825064700,4157072936107,189,-6176,672,-5056,-17472,199360,493824,,,,,,
123057826061300,4157073935982,190,-6272,672,-4128,-18688,199232,497408,,,,,,
123057827061900,4157074936023,191,-6112,736,-4672,-17728,198784,495616,,,,,,
123057828067800,4157075936398,192,-5984,448,-5152,-19136,200320,496256,,,,,,
123057829062000,4157076936107,193,-5920,640,-4384,-17664,198080,499392,,,,,,
123057830080200,4157077936148,194,-5504,960,-4896,-16832,198720,497792,,,,,,
123057831066800,4157078935857,195,-5792,352,-4000,-18496,200384,496192,,,,,,
123057832065100,4157079936107,196,-5824,736,-4864,-19136,200576,494848,,,,,,
123057833071700,4157080936190,197,-5952,192,-4160,-21696,197760,497536,,,,,,
123057834072500,4157081935898,198,-5344,32,-4320,-18688,198848,496064,,,,,,
123057835071800,4157082935898,199,-5088,512,-3744,-19840,199552,497216,,,,,,
123057836062000,4157083936065,200,-4896,-288,-3584,-20288,198464,495552,,,,,,
123057837070400,4157084936148,201,-4768,-416,-3616,-22080,198400,497024,,,,,,
123057838078800,4157085935982,202,-4992,224,-3776,-22528,199808,497728,,,,,,
123057839060700,4157086936398,203,-5632,-416,-3648,-21440,198720,497280,,,,,,
123057840069500,4157087936148,204,-4704,160,-3680,-21952,199040,497024,,,,,,
123057841071400,4157088936023,205,-5152,-768,-3168,-23552,200832,499456,,,,,,
123057842057000,4157089936898,206,-4864,-160,-3936,-23232,198336,498112,,,,,,
123057843063200,4157090935982,207,-4960,-608,-4032,-23040,200000,498304,,,,,,
123057844251500,4157091936273,208,-4320,-1184,-3296,-23168,200704,496448,,,,,,
123057845077000,4157092936065,209,-4864,-1376,-3520,-23744,198720,495680,,,,,,
123057846082400,4157093935607,210,-4224,-928,-2816,-24000,199488,495168,,,,,,
123057847112800,4157094936232,211,-4576,-1440,-3520,-24960,200960,496128,,,,,,
123057848070400,4157095936107,212,-4032,-1280,-3136,-25152,199744,495104,,,,,,
123057849063000,4157096936815,213,-4608,-2240,-3584,-25728,200512,495936,,,,,,
123057850060600,4157097936148,214,-4352,-2016,-3968,-26304,198272,494336,,,,,,
123057851066100,4157098940273,215,-3680,-2144,-3552,-26752,200384,496512,,,,,,
123057852063500,4157099936148,216,-4480,-1952,-3328,-27264,198208,497088,,,,,,
123057853064700,4157100936065,217,-3808,-2784,-3232,-25600,200768,496128,,,,,,
123057854069700,4157101936065,218,-2848,-2912,-3040,-26176,200128,494784,,,,,,
123057855074100,4157102936190,219,-4288,-2912,-3744,-26048,199680,496192,,,,,,
123057856067100,4157103935648,220,-3584,-3264,-3680,-26240,201024,495488,,,,,,
123057857063700,4157104936232,221,-3776,-3264,-4192,-25088,198464,493568,,,,,,
123057858066900,4157105936523,222,-3488,-3360,-3392,-26304,198144,496576,,,,,,
123057859068600,4157106936232,223,-3104,-3360,-3744,-29440,200320,494912,,,,,,
123057860058900,4157107936690,224,-3200,-3456,-3968,-27136,198464,494912,,,,,,
123057861055100,4157108938898,225,-3104,-3744,-3904,-26944,198080,495552,,,,,,
123057862068300,4157109943440,226,-2464,-3520,-3872,-28288,198336,492928,,,,,,
123057863065900,4157110936190,227,-2624,-4704,-3936,-27648,198080,492736,,,,,,
123057864069400,4157111936107,228,-2944,-4224,-4800,-26112,199104,496192,,,,,,
123057865056400,4157112936190,229,-2688,-4640,-4512,-26304,197504,494912,,,,,,
123057866053600,4157113938398,230,-2144,-4992,-4128,-27968,198784,493184,,,,,,
123057867064700,4157114936148,231,-1376,-4960,-4704,-27136,199360,494784,,,,,,
123057868068000,4157115935940,232,-1568,-4736,-4704,-26240,198848,493760,,,,,,
123057869260000,4157116935982,233,-640,-5248,-4096,-26624,197504,491264,,,,,,
123057870080700,4157117936232,234,-704,-5216,-4832,-28608,198464,493824,,,,,,
123057871069900,4157118937690,235,-1344,-5504,-5056,-28544,200640,494016,,,,,,
123057872067400,4157119936065,236,-800,-5888,-5440,-27456,198720,492992,,,,,,
123057873063800,4157120936023,237,0,-6144,-4672,-29632,198272,494912,,,,,,
123057874065400,4157121936148,238,-544,-6304,-5312,-30016,198208,491968,,,,,,
123057875070600,4157122935982,239,320,-5984,-5408,-30016,198784,494272,,,,,,
123057876068500,4157123936148,240,288,-6240,-5568,-26304,197568,494656,,,,,,
123057877068900,4157124936023,241,704,-6944,-4992,-29248,197440,495232,,,,,,
123057878073400,4157125936107,242,960,-6624,-5408,-28672,199232,496576,,,,,,
123057879111600,4157126935982,243,608,-6464,-6496,-27456,197440,493504,,,,,,
123057880065200,4157127936732,244,1088,-7072,-5504,-28096,198016,496064,,,,,,
123057881058600,4157128935690,245,1248,-7264,-5888,-28672,196672,493632,,,,,,
123057882055200,4157129936107,246,1248,-7328,-6336,-29952,198656,494976,,,,,,
123057883063000,4157130936898,247,1408,-7392,-6752,-28736,198912,496128,,,,,,
123057884119300,4157131936107,248,1824,-7776,-6688,-28608,198784,497600,,,,,,
123057885068700,4157132935982,249,1664,-7520,-7328,-30144,198080,495936,,,,,,
123057886061000,4157133936107,250,1856,-7680,-7104,-31232,197376,498112,,,,,,
123057887081800,4157134937357,251,2368,-7904,-7456,-29248,197888,496768,,,,,,
123057888063300,4157135935898,252,1344,-7840,-6912,-30400,198528,495232,,,,,,
123057889057200,4157136936273,253,2240,-8352,-7392,-33536,197632,494144,,,,,,
123057890070200,4157137936065,254,2816,-8832,-7712,-30400,197760,498432,,,,,,
123057891071800,4157138936065,255,2240,-8672,-8160,-30528,198400,496640,,,,,,
123057892057800,4157139935940,0,2592,-8896,-7680,-30912,197440,499264,,,,,,
123057893061000,4157140937148,1,3456,-8864,-8800,-30080,198656,495360,,,,,,
123057894054700,4157141936107,2,2720,-8896,-8512,-30784,197632,495232,,,,,,
123057895101900,4157142936398,3,3616,-9216,-8256,-31808,197248,497408,,,,,,
123057896072700,4157143937607,4,3648,-9152,-8768,-32576,198272,496256,,,,,,
123057897063000,4157144936107,5,3584,-9536,-9472,-30912,198144,496128,,,,,,
123057898056500,4157145935732,6,3872,-9600,-9152,-31936,198976,496576,,,,,,
123057899055600,4157146936148,7,3840,-9888,-9760,-31040,196992,495360,,,,,,
123057900067500,4157147935857,8,4256,-10016,-10080,-32128,199296,496064,,,,,,
123057901069300,4157148937523,9,3776,-10048,-9952,-31552,199232,497984,,,,,,
123057902067200,4157149936065,10,4320,-10080,-9952,-31488,198528,496000,,,,,,
123057903069400,4157150936190,11,3904,-10688,-10624,-31680,198272,495808,,,,,,
123057904069400,4157151935982,12,4576,-10688,-10848,-32640,197888,496256,,,,,,
123057905063300,4157152936065,13,4928,-10528,-11424,-32384,198784,496192,,,,,,
123057906066100,4157153937023,14,4288,-10880,-10752,-30592,196928,496896,,,,,,
123057907070000,4157154935898,15,5184,-11424,-10848,-33408,197696,496704,,,,,,
123057908070500,4157155935898,16,4768,-11488,-11648,-32448,196480,497088,,,,,,
123057909066400,4157156936065,17,5376,-11808,-11936,-30272,199936,498304,,,,,,
123057910068000,4157157936065,18,5376,-11936,-10976,-29504,196544,495296,,,,,,
123057911060400,4157158936023,19,5408,-12000,-12096,-28864,198016,498688,,,,,,
123057912134700,4157159944023,20,4992,-12064,-12320,-30336,199424,498624,,,,,,
123057913061500,4157160937857,21,5280,-12096,-12928,-30144,198400,498368,,,,,,
123057914064100,4157161936107,22,5792,-12544,-12256,-29504,196608,495744,,,,,,
123057915063400,4157162935940,23,6176,-12448,-12896,-28736,198144,499072,,,,,,
123057916065000,4157163936190,24,5792,-12576,-13024,-28864,198784,498752,,,,,,
123057917061900,4157164936107,25,6464,-13088,-12864,-31296,197696,497856,,,,,,
123057918063900,4157165936315,26,5984,-13504,-13056,-29824,198464,495552,,,,,,
123057919255600,4157166935898,27,6944,-13376,-12864,-27904,198464,498944,,,,,,
123057920059200,4157167935940,28,6336,-13472,-13312,-28160,198656,499328,,,,,,
123057921063300,4157168936315,29,5728,-13344,-13376,-28288,198016,497664,,,,,,
123057922071500,4157169935940,30,6368,-14112,-13376,-27072,197184,498432,,,,,,
123057923061600,4157170935982,31,7008,-14048,-13536,-27584,197824,499840,,,,,,
123057923941100,4157171936065,32,7040,-14208,-14240,-28800,198208,498880,,,,,,
123057925068400,4157172936690,33,6752,-14560,-13408,-27520,197952,499456,,,,,,
123057926067400,4157173936148,34,6784,-14720,-14816,-26624,198336,499200,,,,,,
123057927069100,4157174935898,35,6816,-14688,-14176,-26368,199168,499328,,,,,,
123057928075700,4157175936107,36,6976,-14464,-14688,-26432,198208,500224,,,,,,
123057929062400,4157176936440,37,7200,-14912,-13888,-25728,198912,495360,,,,,,
123057930077600,4157177936023,38,7648,-15104,-14784,-26368,198016,498624,,,,,,
123057931073600,4157178935940,39,7200,-15040,-15328,-26176,198464,500928,,,,,,
123057932065500,4157179936023,40,7104,-15392,-15616,-25792,198592,496960,,,,,,
123057933062300,4157180936065,41,7136,-15424,-15616,-25024,201280,500608,,,,,,
123057934064000,4157181935857,42,7040,-15904,-15328,-23680,199936,501312,,,,,,
123057935063700,4157182937107,43,7168,-15584,-15840,-24832,200000,501504,,,,,,
123057936068000,4157183936023,44,7040,-15776,-14752,-23296,198912,500864,,,,,,
123057937069000,4157184935940,45,6976,-15424,-15200,-24576,200640,501376,,,,,,
123057938067200,4157185935982,46,6944,-15776,-15552,-23936,197696,501056,,,,,,
123057939065900,4157186935982,47,7392,-15744,-15008,-24704,200192,502720,,,,,,
123057940071700,4157187936315,48,6592,-15936,-15744,-24576,200128,501824,,,,,,
123057941068600,4157188935982,49,6016,-15712,-15648,-23296,199360,502912,,,,,,
123057942067100,4157189936898,50,6176,-16256,-15456,-24512,201664,503552,,,,,,
123057943105000,4157190937148,51,6272,-16160,-15840,-22720,200064,503488,,,,,,
123057944149700,4157191936065,52,6048,-15680,-16256,-23616,198784,504000,,,,,,
123057945071100,4157192935690,53,6336,-15968,-15840,-24000,202048,504704,,,,,,
123057946066700,4157193936148,54,5792,-15936,-15424,-23552,199872,505344,,,,,,
123057946940100,4157194936190,55,5824,-15904,-16800,-23168,201216,506304,,,,,,
123057948064900,4157195936065,56,6144,-15904,-16384,-22528,201600,504448,,,,,,
123057949067500,4157196937357,57,5600,-16032,-16352,-22848,201472,503360,,,,,,
123057950066000,4157197935440,58,5184,-16576,-16160,-23680,203136,505216,,,,,,
123057951065800,4157198936232,59,4672,-16160,-16640,-24128,202048,505280,,,,,,
123057952070700,4157199936065,60,4320,-15968,-16288,-21184,202304,504704,,,,,,
123057953062400,4157200935940,61,3776,-16256,-16480,-24384,202560,506496,,,,,,
123057954071100,4157201936148,62,4640,-16480,-16448,-22656,203136,507584,,,,,,
123057955076700,4157202936523,63,4000,-16160,-16928,-23744,201856,507776,,,,,,
123057956061100,4157203936065,64,3360,-16384,-16352,-19968,201792,507200,,,,,,
123057956946200,4157204935940,65,3104,-15936,-17152,-21056,201600,506112,,,,,,
123057958070800,4157205937690,66,3488,-16384,-17152,-24384,202816,504256,,,,,,
123057958937700,4157206935982,67,3040,-16320,-16512,-22016,203328,506112,,,,,,
123057960066400,4157207936107,68,2560,-16320,-16864,-22912,200576,503872,,,,,,
123057961070800,4157208935898,69,2240,-16320,-16928,-20992,203328,506048,,,,,,
123057962079100,4157209948065,70,2752,-16928,-16288,-20416,202304,505920,,,,,,
123057963064100,4157210936107,71,1856,-16352,-16864,-20928,201920,504512,,,,,,
123057964065400,4157211936023,72,2304,-16032,-16960,-24384,204416,504192,,,,,,
123057965066600,4157212936898,73,2048,-16576,-16960,-19840,204288,505024,,,,,,
123057966069900,4157213937148,74,1408,-16256,-16832,-20160,203712,505664,,,,,,
123057967067800,4157214937357,75,1120,-15840,-16704,-20288,202688,504064,,,,,,
123057968068100,4157215936107,76,1568,-16256,-16704,-20288,202176,504576,,,,,,
123057969167600,4157216935982,77,1696,-16192,-16672,-18816,203904,504256,,,,,,
123057970064300,4157217936523,78,768,-16096,-17344,-19840,203648,506176,,,,,,
123057971071700,4157218936107,79,128,-16192,-16512,-20992,202880,503360,,,,,,
123057972059000,4157219935898,80,1280,-16512,-16640,-17920,204736,504640,,,,,,
123057973081100,4157220935940,81,-384,-16352,-16480,-17408,201984,502912,,,,,,
123057973938200,4157221936023,82,672,-16064,-16192,-18624,202432,501696,,,,,,
123057975061900,4157222936065,83,416,-16320,-16416,-15936,203968,500928,,,,,,
123057975985800,4157223936065,84,-128,-16224,-15904,-18176,203584,503168,,,,,,
123057977064900,4157224935815,85,288,-15296,-15808,-16640,204480,500864,,,,,,
123057978067300,4157225936232,86,320,-16064,-15968,-16576,203264,502592,,,,,,
123057979054200,4157226935982,87,32,-15616,-16032,-14272,204544,503232,,,,,,
123057980067100,4157227936065,88,-192,-15488,-15520,-17088,204096,501888,,,,,,
123057981053500,4157228936190,89,128,-15456,-15552,-17664,202816,501440,,,,,,
123057982075900,4157229936148,90,-256,-15168,-15840,-17024,203328,501824,,,,,,
123057983066200,4157230937732,91,-704,-15328,-15616,-14656,203008,504064,,,,,,
123057984080600,4157231935982,92,64,-14912,-15328,-15104,202880,500736,,,,,,
123057985066800,4157232936148,93,-512,-15040,-15072,-13696,204864,499328,,,,,,
123057986064900,4157233936982,94,-1056,-15360,-15424,-14208,203264,501760,,,,,,
123057987071000,4157234935898,95,-992,-14720,-14304,-15744,204608,499072,,,,,,
123057988067700,4157235936148,96,-64,-14752,-14400,-13120,204672,499520,,,,,,
123057989108300,4157236936023,97,-928,-14048,-15072,-14016,203968,498240,,,,,,
123057990061200,4157237937107,98,-640,-14208,-15328,-13504,203520,500096,,,,,,
123057991059200,4157238936732,99,-704,-14112,-14656,-13568,202752,500224,,,,,,
123057992064500,4157239937398,100,-1248,-14208,-14272,-13632,204352,501120,,,,,,
123057993067100,4157240937107,101,-704,-14080,-13824,-12608,203840,500352,,,,,,
123057994045500,4157241936065,102,-1024,-13696,-14400,-13376,203584,499264,,,,,,
123057995062500,4157242935982,103,-352,-13728,-13984,-12096,204864,499392,,,,,,
123057996078000,4157243935898,104,-704,-13792,-14048,-10560,205632,502720,,,,,,
123057997069800,4157244936107,105,-1056,-13440,-13440,-13184,203776,499520,,,,,,
123057998063100,4157245936107,106,-1088,-13888,-13344,-12352,205376,499840,,,,,,
123057998951100,4157246935898,107,-1312,-13248,-13280,-13248,204800,499200,,,,,,
123058000048900,4157247936273,108,-1088,-13120,-12800,-13184,203968,499712,,,,,,
123058001054400,4157248936565,109,-1600,-13280,-13216,-13824,203328,502272,,,,,,
123058002055800,4157249937523,110,-1184,-13024,-12672,-13248,205952,499200,,,,,,
123058003071600,4157250937565,111,-1856,-12960,-12512,-12480,205568,502016,,,,,,
123058003949700,4157251936148,112,-1440,-13248,-12192,-12416,205696,500480,,,,,,
123058005088100,4157252936190,113,-1568,-12864,-11744,-12672,205312,501184,,,,,,
123058005941800,4157253935940,114,-1664,-12960,-12160,-12288,206080,500288,,,,,,
123058007059900,4157254936857,115,-1664,-12928,-11680,-13120,205824,499392,,,,,,
123058008068300,4157255936148,116,-2240,-12512,-11040,-11968,207488,498176,,,,,,
123058009181200,4157256938273,117,-1952,-12736,-11424,-11840,205568,498112,,,,,,
123058010055600,4157257936023,118,-1248,-12672,-10496,-12608,205312,500736,,,,,,
123058010946500,4157258935773,119,-2240,-12288,-10624,-13312,205440,500544,,,,,,
123058012066900,4157259947190,120,-2976,-11744,-10560,-11712,204352,499648,,,,,,
123058013065000,4157260936440,121,-2432,-11776,-10560,-10240,205696,499520,,,,,,
123058014072800,4157261935982,122,-1600,-11840,-10432,-11136,206592,497472,,,,,,
123058015067400,4157262935940,123,-2144,-11904,-9856,-11904,205696,498944,,,,,,
123058016065700,4157263936023,124,-2016,-11616,-9024,-9280,205696,499392,,,,,,
123058016942700,4157264935982,125,-1856,-11040,-9888,-10944,205376,498304,,,,,,
123058017943900,4157265936065,126,-2016,-11264,-9184,-10688,205888,496512,,,,,,
123058019065700,4157266936107,127,-1568,-11168,-9536,-13120,206208,498112,,,,,,
123058020070300,4157267936107,128,-2240,-10912,-8736,-10752,205248,498688,,,,,,
123058021071600,4157268936065,129,-1664,-11200,-8576,-9984,205248,497152,,,,,,
123058022080000,4157269935648,130,-2208,-10720,-8704,-9792,204992,497408,,,,,,
123058023070300,4157270936273,131,-1952,-10432,-8256,-11840,206784,497792,,,,,,
123058024065900,4157271936107,132,-2048,-10080,-8704,-10560,205440,496768,,,,,,
123058025065700,4157272935940,133,-2624,-10080,-7968,-9920,204992,499072,,,,,,
123058025943200,4157273935857,134,-2464,-9760,-7200,-9216,205888,496704,,,,,,
123058027069600,4157274936107,135,-2080,-9440,-7776,-11776,205056,497216,,,,,,
123058027948200,4157275936065,136,-2080,-9408,-7520,-8000,205696,497088,,,,,,
123058029076200,4157276935857,137,-1696,-9376,-7264,-8768,206208,497216,,,,,,
123058030071400,4157277935982,138,-1888,-8928,-6688,-11904,205120,497728,,,,,,
123058031066400,4157278936690,139,-2304,-8832,-6496,-8064,205120,499264,,,,,,
123058032066700,4157279937398,140,-1760,-8896,-7008,-9856,205248,499712,,,,,,
123058033067600,4157280936232,141,-2112,-8704,-6528,-8960,205184,496000,,,,,,
123058033947500,4157281935857,142,-1984,-8960,-5408,-10432,204288,498752,,,,,,
123058034943100,4157282936232,143,-2336,-8384,-6272,-10688,203584,496704,,,,,,
123058036064900,4157283935982,144,-2112,-9216,-5696,-7872,203136,497024,,,,,,
123058037070700,4157284936023,145,-2144,-8512,-5504,-9280,204032,495232,,,,,,
123058038077300,4157285935982,146,-1696,-7840,-5184,-8896,203328,498752,,,,,,
123058039067400,4157286936065,147,-1984,-7648,-5120,-9728,205888,499840,,,,,,
123058040063400,4157287937440,148,-1952,-7680,-4960,-9792,204608,499072,,,,,,
123058041066100,4157288936023,149,-2400,-7648,-4768,-9088,203328,497024,,,,,,
123058042110500,4157289937190,150,-1728,-7360,-4928,-8448,206592,498432,,,,,,
123058043067600,4157290936815,151,-2304,-7104,-4544,-8320,203200,497728,,,,,,
123058044258900,4157291936023,152,-2208,-6688,-4256,-10112,205440,497152,,,,,,
123058045189600,4157292935982,153,-1984,-6400,-3424,-9728,205760,496768,,,,,,
123058045956200,4157293936065,154,-2208,-6816,-3584,-11456,204864,497408,,,,,,
123058047066800,4157294936065,155,-2688,-6336,-3392,-8320,204800,499136,,,,,,
123058048067800,4157295936107,156,-2176,-6240,-2816,-9472,204544,499712,,,,,,
123058049066100,4157296935940,157,-2208,-6016,-2752,-8128,206336,497088,,,,,,
123058050066000,4157297936232,158,-2592,-5472,-2336,-6592,204608,499328,,,,,,
123058050941400,4157298935982,159,-2464,-5536,-2240,-8832,205696,501504,,,,,,
123058052065300,4157299936315,160,-2656,-5248,-2336,-10752,205632,499392,,,,,,
123058052934900,4157300935940,161,-2368,-4832,-1824,-7552,206400,499712,,,,,,
123058054078700,4157301937982,162,-3360,-4480,-2112,-8128,204544,499712,,,,,,
123058055067100,4157302936107,163,-3040,-4448,-928,-5824,206912,499648,,,,,,
123058055929300,4157303936023,164,-3072,-3968,-1120,-8832,205888,500928,,,,,,
123058057053300,4157304935940,165,-3168,-3264,-992,-6592,205760,499328,,,,,,
123058058068000,4157305936398,166,-3072,-3648,96,-7744,206720,496192,,,,,,
123058058943000,4157306936023,167,-2688,-3008,-128,-6848,206080,500032,,,,,,
123058060068700,4157307935982,168,-3808,-3264,448,-6528,207168,502144,,,,,,
123058060937100,4157308935815,169,-3872,-2752,608,-7104,206016,500032,,,,,,
123058062068200,4157309949190,170,-3680,-2464,928,-6016,206976,499008,,,,,,
123058063063600,4157310936648,171,-3488,-2496,1120,-5312,206528,500288,,,,,,
123058064072800,4157311935773,172,-4192,-1920,2080,-3648,206400,499072,,,,,,
123058064941500,4157312936357,173,-3936,-1376,1760,-5888,205504,499392,,,,,,
123058066065200,4157313935982,174,-4096,-1568,1536,-5632,205952,501376,,,,,,
123058067066200,4157314936065,175,-4256,-1824,2560,-5376,206528,499200,,,,,,
123058067942500,4157315936023,176,-4704,-1152,2272,-5120,207168,500416,,,,,,
123058069266800,4157316935648,177,-4832,-640,2176,-5632,206336,499904,,,,,,
123058070065400,4157317936065,178,-4640,-480,2880,-5568,208192,498624,,,,,,
123058070955000,4157318935940,179,-4544,-288,3680,-2176,205952,499456,,,,,,
123058072062100,4157319935982,180,-4896,-32,3392,-4352,205632,502528,,,,,,
123058073062400,4157320936232,181,-4864,512,3680,-4992,204480,499456,,,,,,
123058074068200,4157321936440,182,-4768,704,4736,-5568,206400,500672,,,,,,
123058075114200,4157322936065,183,-4960,704,4640,-4032,205248,500544,,,,,,
123058075944500,4157323935940,184,-5952,1024,4512,-4032,206720,501824,,,,,,
123058076942500,4157324936107,185,-5120,2112,4480,-4352,206848,502336,,,,,,
123058078138000,4157325935982,186,-5216,1248,5536,-3840,206848,500928,,,,,,
123058079076000,4157326937357,187,-5952,1984,6112,-4288,206720,500352,,,,,,
123058080067400,4157327935898,188,-5664,1760,6240,-4736,206016,501376,,,,,,
123058080948800,4157328936148,189,-5408,2208,6720,-4352,206336,499136,,,,,,
123058082068800,4157329936023,190,-5472,2080,7200,-6528,206464,499328,,,,,,
123058083073400,4157330937357,191,-6336,2656,6912,-3840,206208,500736,,,,,,
123058084059600,4157331936607,192,-6336,2816,7264,-5248,205440,499392,,,,,,
123058085074400,4157332939232,193,-6112,3264,7552,-4928,206080,499392,,,,,,
123058085948600,4157333936023,194,-6624,3168,8416,-4928,206656,498944,,,,,,
123058086974800,4157334935982,195,-5888,3200,8320,-4288,206720,497152,,,,,,
123058087953100,4157335936107,196,-6080,3168,8448,-5376,205696,499904,,,,,,
123058089068200,4157336936107,197,-6944,3872,8896,-4416,207168,498688,,,,,,
123058090050600,4157337936065,198,-6784,3712,9376,-4608,205888,499264,,,,,,
123058090947500,4157338937440,199,-6688,4352,8992,-6080,205120,501632,,,,,,
123058092068800,4157339936190,200,-6336,3840,10784,-5952,206336,498432,,,,,,
123058092943500,4157340936107,201,-6912,4544,10272,-4928,207872,497664,,,,,,
123058094082000,4157341935815,202,-6176,4480,11328,-3840,204224,496320,,,,,,
123058095069200,4157342936107,203,-7200,4800,10816,-5312,205184,498624,,,,,,
123058096075500,4157343936190,204,-7040,4544,11936,-4544,206720,499136,,,,,,
123058097064200,4157344936148,205,-6400,5248,12128,-4864,205120,495872,,,,,,
123058097938700,4157345936982,206,-6816,5216,11936,-3776,206912,495872,,,,,,
123058099065600,4157346935648,207,-7424,5888,12480,-4672,205504,496000,,,,,,
123058100068700,4157347936190,208,-6976,5760,12736,-4992,205696,497536,,,,,,
123058100943000,4157348935982,209,-6432,5760,13536,-3776,206976,497344,,,,,,
123058102072700,4157349935982,210,-7136,6016,13568,-4224,205184,499136,,,,,,
123058103091000,4157350939065,211,-7104,6112,13600,-3648,205248,497856,,,,,,
123058104078500,4157351936357,212,-6976,5952,14464,-2112,205504,496448,,,,,,
123058104935500,4157352936107,213,-7232,6528,14912,-2496,205120,497216,,,,,,
123058105929700,4157353935815,214,-7104,6848,14464,-4160,204544,499200,,,,,,
123058106932200,4157354935815,215,-6336,7072,15648,-5120,206016,497408,,,,,,
123058108102500,4157355936148,216,-7200,7456,15872,-3008,203456,494400,,,,,,
123058109055900,4157356935523,217,-6656,7424,15904,-3840,205824,494976,,,,,,
123058110054600,4157357936023,218,-7008,7488,16384,-3968,204096,498112,,,,,,
123058110948100,4157358936190,219,-6656,8064,17088,-5312,205568,496640,,,,,,
123058112083600,4157359950398,220,-6688,8192,16800,-4224,205760,496064,,,,,,
123058112954000,4157360936023,221,-6592,8192,17216,-3328,204032,499072,,,,,,
123058114061800,4157361935440,222,-6624,8512,18176,-384,205120,496192,,,,,,
123058115062000,4157362936357,223,-6752,8768,17792,-4352,204352,495936,,,,,,
123058115942400,4157363936065,224,-6144,8736,19136,-4544,203776,496448,,,,,,
123058117067000,4157364935940,225,-6496,9152,19040,-4224,206592,495744,,,,,,
123058117940000,4157365935898,226,-7232,8992,19424,-1792,205120,495936,,,,,,
123058119245600,4157366936398,227,-7008,9024,20448,-3840,205312,495168,,,,,,
123058119945000,4157367936065,228,-6784,9536,21120,-3008,203008,498624,,,,,,
123058120942800,4157368935898,229,-6944,9920,21184,-4160,205696,495488,,,,,,
123058122055200,4157369935940,230,-7520,9792,21536,-2880,204096,498368,,,,,,
123058122929500,4157370937648,231,-6848,10240,21792,-2176,205440,495744,,,,,,
123058124064700,4157371935773,232,-6592,9952,22528,-3328,205312,494144,,,,,,
123058125067200,4157372936190,233,-6496,10176,22880,-1344,204992,496768,,,,,,
123058125943300,4157373935857,234,-7136,10592,23136,-1920,205312,496768,,,,,,
123058127068500,4157374936107,235,-6720,10944,24000,-2496,205376,497280,,,,,,
123058127953300,4157375935940,236,-7072,11040,24000,-1088,204544,495296,,,,,,
123058129085200,4157376936482,237,-6304,10944,25056,-1472,205504,495488,,,,,,
123058129953300,4157377935982,238,-6816,11456,25184,-960,205760,497856,,,,,,
123058131063200,4157378936107,239,-6368,11616,26016,-960,205248,496704,,,,,,
123058132062200,4157379936607,240,-6880,11520,26304,1344,204672,498496,,,,,,
123058132943300,4157380935940,241,-6016,11072,27264,3328,204736,495808,,,,,,
123058134067700,4157381936023,242,-6016,11232,27904,2112,206016,493120,,,,,,
123058134945200,4157382936273,243,-6112,11584,28704,1984,206272,497024,,,,,,
123058135940600,4157383935898,244,-5920,11584,29184,2048,208192,496128,,,,,,
123058137088800,4157384935940,245,-5856,11424,29824,3200,205568,496832,,,,,,
123058138069600,4157385936107,246,-6304,11936,30240,4416,205952,495424,,,,,,
123058138942000,4157386935857,247,-5120,11968,31424,3520,206464,496832,,,,,,
123058140067000,4157387936107,248,-6272,12320,32288,5504,206848,496704,,,,,,
123058140980100,4157388935815,249,-5856,12352,32608,4544,206016,496256,,,,,,
123058142068400,4157389936107,250,-5632,11936,33472,6208,208512,494912,,,,,,
123058143070700,4157390936065,251,-5728,12384,34624,5568,208576,498176,,,,,,
123058144057900,4157391936482,252,-5888,12928,35360,7616,207424,494592,,,,,,
123058145074100,4157392936065,253,-6112,13024,36480,6656,206720,495040,,,,,,
123058146074600,4157393936023,254,-4960,13024,37408,7104,207232,496384,,,,,,
123058146930900,4157394936023,255,-5600,13216,37888,6720,209152,494720,,,,,,
123058147926800,4157395935982,0,-5472,13536,38592,8000,208768,493376,,,,,,
123058149061000,4157396935857,1,-4832,13664,39776,11264,207616,497024,,,,,,
123058150057900,4157397937607,2,-6016,13920,40320,8064,209472,497344,,,,,,
123058150941300,4157398936023,3,-5312,14720,40896,10368,206720,495936,,,,,,
123058152075000,4157399935982,4,-4896,13984,42112,9600,207104,499136,,,,,,
123058153061700,4157400936857,5,-5152,14496,42720,9600,206720,496576,,,,,,
123058153941100,4157401935607,6,-4960,15072,44288,9216,209216,499136,,,,,,
123058155073100,4157402936148,7,-4352,14880,44640,9984,208064,497024,,,,,,
123058155939800,4157403935898,8,-4576,14816,46112,9088,208832,498048,,,,,,
123058156940200,4157404936065,9,-5344,15520,46336,10176,207680,498176,,,,,,
123058157942900,4157405935940,10,-4800,16000,47424,10752,207360,497152,,,,,,
123058159069300,4157406936940,11,-4896,15712,48032,9664,207488,494592,,,,,,
123058159950300,4157407935898,12,-5344,15872,49184,9920,207680,496256,,,,,,
123058161066100,4157408936107,13,-4928,16256,50752,9088,208064,499008,,,,,,
123058162078700,4157409950565,14,-5088,16736,50496,8640,206720,500544,,,,,,
123058163076800,4157410936023,15,-5120,16960,51680,8256,207424,497664,,,,,,
123058164061900,4157411935482,16,-4960,16736,53088,8576,207424,501184,,,,,,
123058164929500,4157412936190,17,-5184,17024,53120,7680,205760,502208,,,,,,
123058165937500,4157413935982,18,-5440,16672,54208,6080,205952,502080,,,,,,
123058167067000,4157414936232,19,-5152,16672,55232,7552,207232,500672,,,,,,
123058167937800,4157415935898,20,-5312,16640,56288,7040,207104,500608,,,,,,
123058169065700,4157416937523,21,-5632,16832,56288,5888,204608,500672,,,,,,
123058169950600,4157417936357,22,-5696,16352,57760,3840,209408,503424,,,,,,
123058170962100,4157418935982,23,-5632,16256,58816,5056,206144,501632,,,,,,
123058172064900,4157419935940,24,-5952,16352,60096,6272,206016,500864,,,,,,
123058173066300,4157420938440,25,-5440,16864,59648,7744,206784,502144,,,,,,
123058174130700,4157421936023,26,-5856,16672,61248,4800,206144,501824,,,,,,
123058174948200,4157422936023,27,-5856,16480,61632,5760,207552,501888,,,,,,
123058175944500,4157423936107,28,-6080,16256,63200,5312,207360,500736,,,,,,
123058176942800,4157424936190,29,-6688,16704,63456,5312,207360,499904,,,,,,
123058178088200,4157425935982,30,-6176,16480,64384,3712,207296,500480,,,,,,
123058179080300,4157426936857,31,-6368,16704,65472,6208,209088,501568,,,,,,
123058180064500,4157427936190,32,-6688,16896,66784,6528,208000,502080,,,,,,
123058180939300,4157428936023,33,-7040,17216,67680,5376,208640,499584,,,,,,
123058182068500,4157429935982,34,-6560,17184,67968,4864,208256,501696,,,,,,
123058182944800,4157430937482,35,-6944,17536,69568,4864,207232,499200,,,,,,
123058184070700,4157431935982,36,-7520,18048,69664,7552,207744,501568,,,,,,
123058185069500,4157432936148,37,-6880,18112,71264,6272,208192,496064,,,,,,
123058186071800,4157433935857,38,-6976,18560,71744,8832,208832,499904,,,,,,
123058186946200,4157434936023,39,-6976,18752,72672,8576,209152,498432,,,,,,
123058187945100,4157435936107,40,-6944,19072,74112,7552,209664,499136,,,,,,
123058188949500,4157436935982,41,-6816,18912,74336,8640,209088,499392,,,,,,
123058190082800,4157437935940,42,-7424,19680,75872,7680,207680,499136,,,,,,
123058191070000,4157438936148,43,-7808,20320,75808,10752,208256,500160,,,,,,
123058192058200,4157439936148,44,-7232,19968,77184,8512,209088,503424,,,,,,
123058192943200,4157440936023,45,-7840,20256,77664,9280,207168,499776,,,,,,
123058194276100,4157441936023,46,-7904,20256,78848,8384,208064,498304,,,,,,
123058195066700,4157442935815,47,-8160,20096,79552,9792,206080,502080,,,,,,
123058196075900,4157443935857,48,-8800,20800,80480,11264,209472,501120,,,,,,
123058197065300,4157444936107,49,-8512,21504,80768,10368,205696,501760,,,,,,
123058197931500,4157445935773,50,-8320,21440,82336,9536,208384,501312,,,,,,
123058198930700,4157446935857,51,-8512,21696,83232,10560,207232,499264,,,,,,
123058199959500,4157447936023,52,-8832,21856,83520,9280,206976,500224,,,,,,
123058201066100,4157448936148,53,-8864,22432,84096,11328,206144,501824,,,,,,
123058202065400,4157449935982,54,-9120,22176,84832,11008,207744,502336,,,,,,
123058203073600,4157450938815,55,-8672,22336,86240,11008,209216,503232,,,,,,
123058203939900,4157451936398,56,-9280,21952,87104,11456,208832,501376,,,,,,
123058204958900,4157452935982,57,-9184,22496,88192,9856,204288,503744,,,,,,
123058206067700,4157453935982,58,-9440,23040,88128,7680,207936,503296,,,,,,
123058206985500,4157454936232,59,-9728,22912,89472,9792,205952,498432,,,,,,
123058208068800,4157455935982,60,-10080,22560,89696,6464,206272,501568,,,,,,
123058209064800,4157456936732,61,-10464,22944,91200,7040,206912,501760,,,,,,
123058209942900,4157457935815,62,-10464,23264,91008,8320,207808,501440,,,,,,
123058210921300,4157458936065,63,-10688,23200,92096,6912,206400,501632,,,,,,
123058212067600,4157459951482,64,-10592,24096,92512,5952,208256,499008,,,,,,
123058213084700,4157460935982,65,-11424,24064,93888,5504,209600,501440,,,,,,
123058214067800,4157461936023,66,-10784,24320,94208,5696,209920,500032,,,,,,
123058214943400,4157462936148,67,-10752,24256,95168,5824,208000,501760,,,,,,
123058215935200,4157463936107,68,-11168,24128,96128,4224,208768,500544,,,,,,
123058216928100,4157464936023,69,-11392,24800,96864,4800,207296,502720,,,,,,
123058217922600,4157465935857,70,-11680,24672,96544,3072,207296,503232,,,,,,
123058219047600,4157466936190,71,-12096,24640,97952,2240,208640,499776,,,,,,
123058219951500,4157467936148,72,-12320,25312,98240,2560,207296,498368,,,,,,
123058220952400,4157468936398,73,-12000,25760,99552,4864,207232,499456,,,,,,
123058222059400,4157469935898,74,-12416,25728,99296,2304,206528,500352,,,,,,
123058222933600,4157470936148,75,-12096,25824,100064,1472,206656,498560,,,,,,
123058223943600,4157471936065,76,-12064,26016,101376,1792,206464,498048,,,,,,
123058225068900,4157472935898,77,-11808,26112,101472,2752,206208,499264,,,,,,
123058226070200,4157473937482,78,-13120,26176,102240,3840,206400,499328,,,,,,
123058226943100,4157474937398,79,-12512,26304,102528,3456,208512,498944,,,,,,
123058227937100,4157475935940,80,-12480,26432,103616,2496,208640,496128,,,,,,
123058229081500,4157476935857,81,-12576,25888,103584,1728,206272,497024,,,,,,
123058229942500,4157477936065,82,-13216,26912,104064,3712,206592,495424,,,,,,
123058230936400,4157478936023,83,-13216,27232,105664,3648,208576,494784,,,,,,
123058232063400,4157479935898,84,-13088,27456,106368,4992,207552,493824,,,,,,
123058233068200,4157480937815,85,-12832,27808,106752,5312,208896,494336,,,,,,
123058234068200,4157481936398,86,-12896,28608,108064,4736,209024,496320,,,,,,
123058234943600,4157482935940,87,-12832,28736,108832,5312,206400,496192,,,,,,
123058235940600,4157483936023,88,-12512,28608,109216,8064,208192,494848,,,,,,
123058236937900,4157484935940,89,-11904,29504,109856,6464,209984,494592,,,,,,
123058238081200,4157485936023,90,-12704,29504,110656,8128,207936,496320,,,,,,
123058238941900,4157486936065,91,-12256,29696,111552,9344,207424,496576,,,,,,
123058240105500,4157487935982,92,-12448,29760,112352,8128,208512,494080,,,,,,
123058240937900,4157488935940,93,-12608,29952,113536,9792,209536,495424,,,,,,
123058242085100,4157489936107,94,-12608,30592,113952,11392,209536,497088,,,,,,
123058243056800,4157490937565,95,-12128,31008,115296,9600,207232,495424,,,,,,
123058244074200,4157491938232,96,-12640,31360,115232,12224,208128,495744,,,,,,
123058244941900,4157492936523,97,-12608,30816,116608,12032,208320,495232,,,,,,
123058246068700,4157493937440,98,-12832,31584,117856,15424,209792,497088,,,,,,
123058246954200,4157494936065,99,-12768,32096,119168,14144,208256,496192,,,,,,
123058248081300,4157495935774,100,-13024,32576,118976,15488,209600,497984,,,,,,
123058248938900,4157496936149,101,-13280,32608,120064,16448,211264,496704,,,,,,
123058249939300,4157497936024,102,-12608,32736,120928,16384,210560,501952,,,,,,
123058250934000,4157498936065,103,-13312,33472,122016,17408,210560,498176,,,,,,
123058252053600,4157499935857,104,-13344,32928,122752,18304,210944,499584,,,,,,
123058252939100,4157500936774,105,-12960,33728,124160,16704,212352,499904,,,,,,
123058253940400,4157501936190,106,-12608,33920,125472,16768,212736,499776,,,,,,
123058255068500,4157502935982,107,-13248,34368,125504,19392,211584,499264,,,,,,
123058256060500,4157503935940,108,-13536,34464,127008,17536,210560,498368,,,,,,
123058256937300,4157504937440,109,-13280,34976,127840,17984,211200,500544,,,,,,
123058258067900,4157505935649,110,-13888,35616,129056,18944,211392,500544,,,,,,
123058259063400,4157506937399,111,-13856,35840,128736,16640,211968,501312,,,,,,
123058259939300,4157507935899,112,-14048,35936,131296,18944,212480,501248,,,,,,
123058260931800,4157508936149,113,-14240,36064,132000,15744,211584,502656,,,,,,
123058262082100,4157509951690,114,-14496,36832,132800,16256,212736,503488,,,,,,
123058263083900,4157510935524,115,-15008,36704,134336,18048,212800,504384,,,,,,
123058263941900,4157511935940,116,-14944,37088,134880,17728,212736,502464,,,,,,
123058264944400,4157512936149,117,-15552,37440,135776,16640,212416,502080,,,,,,
123058265944900,4157513936024,118,-15232,37696,136736,16832,215488,503680,,,,,,
123058266949400,4157514935899,119,-15840,37984,137888,16064,211712,504896,,,,,,
123058268066100,4157515935732,120,-16160,38496,138528,14080,212544,504320,,,,,,
123058268944700,4157516936107,121,-16832,38496,139520,13440,213120,501952,,,,,,
123058269954500,4157517935940,122,-16800,38560,139904,13696,212160,502272,,,,,,
123058270953900,4157518935940,123,-16448,38784,140672,13568,213632,503744,,,,,,
123058272105900,4157519935857,124,-16928,39072,142144,13760,212800,504512,,,,,,
123058272929500,4157520936815,125,-17472,39168,142784,12160,214464,506816,,,,,,
123058274058700,4157521937524,126,-17568,39424,143072,10560,210368,502336,,,,,,
123058274927900,4157522935940,127,-18304,39200,144352,9984,213248,506240,,,,,,
123058275940100,4157523936190,128,-18368,39136,145120,9280,212224,505216,,,,,,
123058276951300,4157524936024,129,-18432,39424,145408,7488,212992,506624,,,,,,
123058277937400,4157525936065,130,-19520,39552,145568,6848,211584,502784,,,,,,
123058279072500,4157526936399,131,-18656,39936,147264,4288,210624,504704,,,,,,
123058279936200,4157527935899,132,-19648,39776,147200,4608,212480,502656,,,,,,
123058281063900,4157528936065,133,-19296,39744,147840,3392,212096,503680,,,,,,
123058282063200,4157529935857,134,-19456,39360,148928,3264,212608,501824,,,,,,
123058283056500,4157530936940,135,-19648,39904,149184,3712,210880,507200,,,,,,
123058283932900,4157531936149,136,-19360,39392,150048,2048,210880,505856,,,,,,
123058285060200,4157532936065,137,-19744,39968,150432,1088,210368,504320,,,,,,
123058285928900,4157533935940,138,-19744,39328,150560,128,208320,504960,,,,,,
123058286940300,4157534935899,139,-20320,38816,151392,320,209216,504064,,,,,,
123058287937200,4157535935982,140,-20576,39616,151424,-832,208832,504320,,,,,,
123058288931900,4157536936065,141,-21248,39104,152064,-1472,210048,503936,,,,,,
123058289940000,4157537935857,142,-20832,38368,153248,-1280,208832,502720,,,,,,
123058291059900,4157538935857,143,-20544,38464,154080,-640,208512,501888,,,,,,
123058292048700,4157539936107,144,-22048,39008,153184,-1984,208768,500800,,,,,,
123058293097800,4157540936065,145,-21696,38944,153472,-2496,208448,502720,,,,,,
123058293932100,4157541936065,146,-21504,38656,154368,-1856,209664,503488,,,,,,
123058294950000,4157542935857,147,-22080,38752,155136,-2880,210112,501952,,,,,,
123058295935200,4157543936149,148,-21760,38656,154944,-3520,205376,500800,,,,,,
123058297070000,4157544936024,149,-22144,38944,156032,-1472,209152,502016,,,,,,
123058298065100,4157545938357,150,-21536,38432,155744,-3264,207360,499840,,,,,,
123058298936500,4157546936107,151,-22112,38816,156192,-4224,205760,502720,,,,,,
123058299940900,4157547937190,152,-22080,38688,156800,-2560,205952,502848,,,,,,
123058300947200,4157548935857,153,-22304,38592,156704,-4288,205312,499712,,,,,,
123058302062900,4157549935940,154,-22912,38400,156832,-768,206144,499904,,,,,,
123058303058200,4157550936024,155,-23360,38016,157024,-1984,209280,501696,,,,,,
123058304067800,4157551937565,156,-23104,38496,157248,-1856,206656,498944,,,,,,
123058304936500,4157552937274,157,-23392,38144,158080,-2304,207168,499264,,,,,,
123058305947600,4157553937232,158,-23136,38784,158240,-448,208448,500288,,,,,,
123058306937700,4157554936065,159,-22720,38944,158848,-832,206016,500480,,,,,,
123058307948900,4157555936399,160,-23200,39520,158720,512,206912,501568,,,,,,
123058308938900,4157556936232,161,-23232,39520,159072,-2176,206912,501952,,,,,,
123058310063200,4157557935732,162,-23168,39552,159232,-512,208576,499968,,,,,,
123058310944100,4157558936107,163,-22432,40096,160448,-384,206912,498752,,,,,,
123058312071500,4157559952482,164,-23360,40160,159136,192,206080,499392,,,,,,
123058312937400,4157560936940,165,-23136,39808,160800,-128,207360,501312,,,,,,
123058313933600,4157561935732,166,-24032,40512,160416,-128,206528,498816,,,,,,
123058315062300,4157562935815,167,-23456,40224,160608,1664,205376,500864,,,,,,
123058315946700,4157563937065,168,-24576,40608,160224,1792,209472,499008,,,,,,
123058316928600,4157564935815,169,-23968,40768,161792,-1088,204288,501632,,,,,,
123058317937500,4157565936107,170,-23680,40832,162240,1664,207680,500800,,,,,,
123058318947600,4157566936065,171,-23968,41792,160928,1792,209024,501056,,,,,,
123058319941100,4157567935649,172,-23904,41952,162752,1088,208000,501376,,,,,,
123058321063800,4157568935899,173,-23936,41920,162912,1920,207552,501440,,,,,,
123058322068700,4157569935982,174,-24416,42304,162720,640,209920,501184,,,,,,
123058322933700,4157570936107,175,-24128,42368,163584,2496,206336,502464,,,,,,
123058323939800,4157571935940,176,-24800,42624,164000,1408,207744,503360,,,,,,
123058324944400,4157572935940,177,-24096,42560,164000,704,206784,504832,,,,,,
123058325986400,4157573936232,178,-25088,42944,163936,768,208960,502336,,,,,,
123058327064700,4157574936024,179,-25376,43040,164704,1152,206208,503680,,,,,,
123058327943500,4157575936024,180,-24960,43296,164832,0,205632,502848,,,,,,
123058329068900,4157576937357,181,-24576,43456,165152,-1792,208704,503808,,,,,,
123058329939500,4157577937857,182,-25408,43584,164992,-2048,206976,504832,,,,,,
123058330934600,4157578936024,183,-26144,43680,164992,-1792,207616,505024,,,,,,
123058332082700,4157579935899,184,-25568,43968,166080,-3008,207424,504128,,,,,,
123058333061100,4157580938107,185,-25984,44096,165792,-1600,206656,502912,,,,,,
123058333939900,4157581935982,186,-26016,44544,166400,-2432,208000,505088,,,,,,
123058334932700,4157582935607,187,-25920,44896,166016,-2176,205888,504896,,,,,,
123058335931800,4157583936024,188,-26080,44992,166656,-4224,207232,504064,,,,,,
123058336954800,4157584935857,189,-26624,44928,166496,-4480,206720,507200,,,,,,
123058338054100,4157585936190,190,-26048,44608,166848,-5440,206656,506880,,,,,,
123058339056600,4157586936107,191,-27136,45408,166304,-5120,205440,506560,,,,,,
123058339931700,4157587936024,192,-26848,45408,167232,-5824,205888,505344,,,,,,
123058341070000,4157588935857,193,-27392,45440,166432,-4736,205184,501696,,,,,,
123058342066300,4157589936065,194,-27232,45856,167040,-6272,206144,505344,,,,,,
123058342934800,4157590935982,195,-26944,45728,166752,-7168,206784,504960,,,,,,
123058344247900,4157591935940,196,-27680,45920,166976,-6464,207232,505216,,,,,,
123058345121000,4157592936065,197,-28032,45440,166656,-6912,205696,502976,,,,,,
123058345959700,4157593937107,198,-27584,45696,167104,-8192,204800,505792,,,,,,
123058346937000,4157594935857,199,-28256,45920,167584,-8768,203840,505728,,,,,,
123058347948700,4157595935940,200,-28192,45312,167136,-9152,204800,505088,,,,,,
123058348945700,4157596936024,201,-28704,45088,167232,-10688,203264,506048,,,,,,
123058349932600,4157597936107,202,-28864,45184,167680,-10240,202240,504384,,,,,,
123058350928600,4157598935899,203,-28384,45568,167648,-11072,204480,505280,,,,,,
123058352057400,4157599935899,204,-28736,44992,167072,-11584,204608,504384,,,,,,
123058352957500,4157600936440,205,-28928,45184,167424,-10176,203648,504768,,,,,,
123058353955800,4157601936065,206,-28960,44832,167136,-10368,202752,502784,,,,,,
123058354945600,4157602936107,207,-28736,45248,167488,-9984,204416,503616,,,,,,
123058355935900,4157603935857,208,-29440,45184,166656,-10240,203008,502144,,,,,,
123058357064100,4157604936232,209,-28768,45312,166816,-10240,199296,503936,,,,,,
123058357930900,4157605936190,210,-28288,45152,167648,-9984,203392,503424,,,,,,
123058358933500,4157606935899,211,-28768,45120,167232,-8768,203584,502464,,,,,,
123058360064000,4157607935940,212,-29888,44864,167072,-9600,204032,500736,,,,,,
123058360942100,4157608936024,213,-28864,44608,167264,-11200,201792,502208,,,,,,
123058362080400,4157609954815,214,-28448,43840,166752,-9408,202944,500480,,,,,,
123058363077700,4157610936607,215,-29440,44448,166784,-8448,201792,499776,,,,,,
123058363945900,4157611935857,216,-29920,44704,166560,-9216,202688,500416,,,,,,
123058364935000,4157612935732,217,-29184,44384,166272,-9728,202560,500736,,,,,,
123058365933200,4157613936065,218,-29024,44224,166048,-9280,201920,501120,,,,,,
123058366938800,4157614935857,219,-29088,44544,167040,-9472,201856,500352,,,,,,
123058368074300,4157615936065,220,-29344,44608,165536,-9152,200128,502400,,,,,,
123058369049700,4157616936190,221,-29184,44704,165952,-10176,202944,502720,,,,,,
123058369936300,4157617936024,222,-28512,44608,165920,-9280,201408,501568,,,,,,
123058370979700,4157618935899,223,-29088,44768,165536,-9408,200064,499520,,,,,,
123058372057000,4157619935982,224,-28960,44704,165728,-10304,200000,502336,,,,,,
123058372944800,4157620936232,225,-28896,44704,165696,-10496,200896,500864,,,,,,
123058373940900,4157621936482,226,-30080,44544,164768,-8960,200896,502592,,,,,,
123058374932300,4157622935940,227,-30016,44608,164992,-10496,200576,501120,,,,,,
123058376078500,4157623936024,228,-29248,44832,164064,-11584,200000,500224,,,,,,
123058376935400,4157624935940,229,-30272,44704,165056,-10496,202176,503296,,,,,,
123058377933600,4157625936024,230,-30240,44928,164672,-11648,201728,501888,,,,,,
123058378938500,4157626935857,231,-29088,45120,163968,-10560,200192,501376,,,,,,
123058380068100,4157627936149,232,-29760,45024,164352,-8448,201792,501696,,,,,,
123058380933400,4157628935982,233,-29568,45888,163328,-9792,201344,502464,,,,,,
123058382060300,4157629935774,234,-29632,46144,163712,-11392,201600,500736,,,,,,
123058383069500,4157630937482,235,-29472,46112,163392,-12096,200768,499712,,,,,,
123058383946300,4157631935940,236,-29824,46336,163040,-12352,200192,502080,,,,,,
123058384938400,4157632935982,237,-29440,46592,162944,-12608,202112,502080,,,,,,
123058386056200,4157633935899,238,-30016,46688,162784,-12096,202304,503616,,,,,,
123058386950700,4157634935732,239,-29856,46784,162752,-12160,201664,502656,,,,,,
123058387935000,4157635936149,240,-29792,46336,162464,-12672,201152,503488,,,,,,
123058388950800,4157636937565,241,-30464,46656,162048,-10816,202368,502528,,,,,,
123058389986700,4157637936065,242,-30560,47424,161312,-12992,202048,503744,,,,,,
123058390949300,4157638935732,243,-30016,47008,161568,-12224,201344,504128,,,,,,
123058392058400,4157639935607,244,-30688,47296,161184,-13312,201664,504576,,,,,,
123058392939700,4157640935982,245,-30752,47104,160992,-12800,200704,507648,,,,,,
123058393932500,4157641935899,246,-31232,46400,161056,-12736,200576,506496,,,,,,
123058394938600,4157642937524,247,-31392,46912,160352,-13248,198976,501376,,,,,,
123058395937500,4157643935815,248,-31648,46976,159744,-14848,202560,503104,,,,,,
123058397057800,4157644936649,249,-31392,46464,160160,-13504,201856,505216,,,,,,
123058397981700,4157645935857,250,-32448,46784,158688,-11200,199168,504320,,,,,,
123058398939700,4157646935940,251,-32448,47008,159616,-14464,199296,506496,,,,,,
123058399937300,4157647936065,252,-32736,46848,159072,-12352,201408,505728,,,,,,
123058400934300,4157648935982,253,-32960,46656,158976,-13632,200640,503936,,,,,,
123058402051900,4157649935565,254,-32864,46880,158336,-12544,202496,502208,,,,,,
123058402938100,4157650936774,255,-33056,47008,158368,-11712,202432,502528,,,,,,
123058403958200,4157651936232,0,-33088,46912,158112,-13440,201728,503936,,,,,,
123058405064600,4157652936899,1,-33184,47296,157728,-11456,201472,499840,,,,,,
123058406057600,4157653935899,2,-33440,47584,157536,-10880,202368,502144,,,,,,
123058406928000,4157654936024,3,-32480,47392,158144,-11072,201344,502720,,,,,,
123058407931400,4157655936149,4,-33120,47584,157408,-10368,200960,498432,,,,,,
123058408937500,4157656935857,5,-32864,47904,156864,-11840,199872,501056,,,,,,
123058410061700,4157657935940,6,-33056,47488,157440,-10560,200064,501184,,,,,,
123058410939400,4157658936024,7,-33184,47296,156512,-10944,201024,500544,,,,,,
123058412075500,4157659955815,8,-33632,47904,156160,-8384,199744,503104,,,,,,
123058412942900,4157660936649,9,-34144,48224,156064,-11968,199360,501568,,,,,,
123058413947400,4157661935899,10,-34112,47936,155776,-10624,199616,499904,,,,,,
123058414953300,4157662935982,11,-34560,48000,155392,-9920,201280,499264,,,,,,
123058416060900,4157663937399,12,-34624,48416,155104,-8320,200384,498816,,,,,,
123058416935600,4157664937232,13,-34240,48448,154944,-10112,198400,499648,,,,,,
123058417931600,4157665936190,14,-34144,48512,155616,-7936,200448,500672,,,,,,
123058418937600,4157666936024,15,-34048,48704,154880,-9792,200960,498816,,,,,,
123058419933100,4157667935982,16,-34912,49184,154432,-10240,199744,500864,,,,,,
123058420952000,4157668935899,17,-34144,49312,154944,-6400,199296,497344,,,,,,
123058422076200,4157669938857,18,-33856,49376,154496,-8768,199360,497408,,,,,,
123058422935100,4157670937607,19,-34208,49408,153824,-10176,198592,498624,,,,,,
123058423959900,4157671935940,20,-34784,49504,153056,-9408,198528,496896,,,,,,
123058424944200,4157672935940,21,-34624,49696,153856,-7360,197184,501952,,,,,,
123058425941900,4157673936732,22,-34464,49632,152896,-9280,200192,498944,,,,,,
123058427066200,4157674937107,23,-34592,49952,152672,-6656,197312,498944,,,,,,
123058427940100,4157675935899,24,-34144,49632,152480,-8000,197184,499904,,,,,,
123058428986300,4157676936899,25,-34560,49920,152320,-8640,198912,501056,,,,,,
123058429939700,4157677936024,26,-34272,50464,151808,-9024,197952,500608,,,,,,
123058430935000,4157678935982,27,-34208,50112,152192,-7680,198784,500864,,,,,,
123058432051500,4157679936024,28,-34976,50880,151712,-7232,197824,499712,,,,,,
123058433060300,4157680936107,29,-33664,51200,152096,-7744,198464,499776,,,,,,
123058433931300,4157681935940,30,-34656,50560,151328,-8000,199232,501888,,,,,,
123058434940100,4157682936065,31,-34368,50912,151392,-7744,198912,499776,,,,,,
123058436055600,4157683935857,32,-34688,50944,150944,-9280,199872,503552,,,,,,
123058436948100,4157684935732,33,-34336,51040,151136,-11328,197440,502528,,,,,,
123058437948200,4157685936149,34,-35104,51360,150304,-9472,198400,501760,,,,,,
123058438934000,4157686935940,35,-34944,51136,150752,-9408,199744,503488,,,,,,
123058439931100,4157687935940,36,-35552,50880,150208,-9856,198592,505920,,,,,,
123058440942900,4157688936065,37,-35904,51328,149952,-9664,197504,504640,,,,,,
123058442067200,4157689937482,38,-35936,50880,149600,-10432,200640,504576,,,,,,
123058442942900,4157690936107,39,-36000,51328,149760,-9152,199680,504512,,,,,,
123058444227100,4157691935857,40,-36256,51104,149984,-8448,197760,504256,,,,,,
123058445066200,4157692936315,41,-35680,51232,149600,-8640,200320,505920,,,,,,
123058445929300,4157693935982,42,-37088,51744,149216,-7808,201408,505344,,,,,,
123058446993200,4157694935940,43,-36928,51776,149280,-7040,198976,507520,,,,,,
123058447948000,4157695935940,44,-36896,51680,149120,-8640,198528,507584,,,,,,
123058448933400,4157696935982,45,-36832,52032,148992,-8832,197696,506176,,,,,,
123058449948200,4157697936065,46,-37632,51744,148480,-8512,198144,505920,,,,,,
123058450939500,4157698937232,47,-37312,51552,149600,-6144,199424,509184,,,,,,
123058452065600,4157699935857,48,-38656,51424,149216,-4864,199168,508608,,,,,,
123058452950100,4157700936190,49,-38784,51680,149312,-4288,200256,507200,,,,,,
123058453943900,4157701935940,50,-38528,51648,148928,-6400,199488,507520,,,,,,
123058454950800,4157702935899,51,-39584,51808,148608,-5184,199232,507392,,,,,,
123058455958800,4157703935815,52,-39328,52288,149152,-4224,198784,506880,,,,,,
123058456943900,4157704936107,53,-39584,52608,148352,-3840,200512,505792,,,,,,
123058457940400,4157705935982,54,-40480,52480,148960,-3200,201856,506240,,,,,,
123058458939700,4157706935815,55,-40992,53088,149184,-1280,201472,506432,,,,,,
123058460065100,4157707936607,56,-40736,53184,149568,-1920,199296,504064,,,,,,
123058460945000,4157708936065,57,-41312,54016,148832,-2688,203264,503872,,,,,,
123058462081100,4157709951982,58,-40768,54016,149568,1280,202176,504768,,,,,,
123058462946100,4157710937482,59,-41792,54592,149088,2240,199744,505216,,,,,,
123058463937600,4157711937274,60,-41280,54624,149856,1536,202496,505472,,,,,,
123058464943100,4157712936024,61,-40512,55040,149952,2560,201152,506112,,,,,,
123058466069700,4157713935982,62,-41856,55104,149888,2240,201536,505536,,,,,,
123058466946400,4157714935899,63,-42464,55392,149664,2880,201856,504960,,,,,,
123058467947200,4157715936065,64,-42688,55584,149504,3392,202112,507136,,,,,,
123058469261900,4157716936065,65,-43264,55840,149600,1600,200832,505728,,,,,,
123058469949500,4157717936107,66,-43008,56384,149216,3584,202240,504640,,,,,,
123058470958600,4157718936482,67,-43840,56064,150112,2176,200384,506240,,,,,,
123058472065100,4157719936190,68,-43488,56320,149280,2304,200512,505472,,,,,,
123058472941300,4157720936774,69,-43456,56256,149920,3072,201600,503360,,,,,,
123058473942400,4157721935815,70,-43296,57280,150144,384,200256,503680,,,,,,
123058475070200,4157722936399,71,-43072,57312,150176,896,200064,504960,,,,,,
123058476069000,4157723935940,72,-43584,57792,149024,128,198912,504000,,,,,,
123058476943400,4157724935982,73,-42656,57952,150304,384,200256,503488,,,,,,
123058477941100,4157725935899,74,-43744,58304,149888,3392,199296,503680,,,,,,
123058479083700,4157726935524,75,-43328,58144,150400,1024,199488,504832,,,,,,
123058479980400,4157727936149,76,-44384,58208,149856,-1856,198976,505728,,,,,,
123058480938300,4157728935899,77,-43680,58400,150272,704,198016,504256,,,,,,
123058482067800,4157729935899,78,-43872,58304,150016,-640,199808,505472,,,,,,
123058482945000,4157730937940,79,-44480,58432,150336,-2880,199104,502144,,,,,,
123058483943100,4157731938690,80,-44256,58496,149952,-384,199488,502144,,,,,,
123058484944700,4157732936065,81,-43648,58688,150400,-640,200192,502336,,,,,,
123058485936500,4157733936024,82,-45088,58880,149760,-2560,198528,500864,,,,,,
123058486949100,4157734935815,83,-44576,58752,150208,-2880,200448,503040,,,,,,
123058487946800,4157735936024,84,-43808,59104,150624,-3904,198976,501568,,,,,,
123058488935700,4157736937440,85,-44160,59200,150752,-2624,200000,501696,,,,,,
123058489940200,4157737935940,86,-44160,59616,150592,-4032,199360,500352,,,,,,
123058490943100,4157738935982,87,-44288,60192,149280,-4736,198528,501312,,,,,,
123058492070100,4157739935982,88,-43744,59968,150176,-1984,198208,499328,,,,,,
123058492944500,4157740937357,89,-43680,59712,150688,-6784,196032,503296,,,,,,
123058494052700,4157741935899,90,-43904,59264,150080,-4672,196160,504256,,,,,,
123058494946300,4157742936149,91,-43712,59008,150176,-4416,196672,503872,,,,,,
123058495951100,4157743935899,92,-44480,58944,150048,-6336,197504,504704,,,,,,
123058496939900,4157744935940,93,-43936,58656,150912,-5248,195904,502656,,,,,,
123058498064700,4157745935899,94,-44672,59136,150560,-4160,196544,503744,,,,,,
123058498947200,4157746936107,95,-44768,58464,150624,-5376,196032,502464,,,,,,
123058499947900,4157747936065,96,-44992,58304,150816,-4672,195776,504960,,,,,,
123058500948100,4157748935857,97,-44480,58112,150944,-5376,197248,503360,,,,,,
123058502071100,4157749935857,98,-44352,58336,151200,-2880,197120,501696,,,,,,
123058502943300,4157750938315,99,-44224,58560,150880,-3456,194944,500608,,,,,,
123058504442500,4157751935982,100,-44288,58400,151456,-1344,197504,502272,,,,,,
123058504949200,4157752935899,101,-44192,58368,150976,-2496,194752,502528,,,,,,
123058505941000,4157753935774,102,-44032,58432,151168,-704,196480,504576,,,,,,
123058506942900,4157754936107,103,-43712,59136,150880,-1344,196032,504960,,,,,,
123058507941400,4157755935899,104,-43712,58016,151616,-3392,194816,501632,,,,,,
123058508941600,4157756935940,105,-44064,58208,151104,-320,195200,507392,,,,,,
123058510067300,4157757936690,106,-44256,57760,151776,-832,193280,505600,,,,,,
123058510964000,4157758936065,107,-44896,58080,151456,-64,197248,505728,,,,,,
123058512105000,4157759957565,108,-44704,57696,152192,1216,194624,502208,,,,,,
123058512955800,4157760936024,109,-45408,57952,151456,3328,198208,502784,,,,,,
123058513944200,4157761936107,110,-45024,58112,151936,960,197952,501312,,,,,,
123058514943500,4157762936024,111,-44576,58528,152576,2624,196480,501376,,,,,,
123058516072300,4157763936482,112,-45248,59232,153280,4800,197504,500480,,,,,,
123058517074000,4157764937399,113,-44352,59840,153216,8704,197952,501696,,,,,,
123058517947400,4157765936024,114,-44832,60224,153248,7040,197568,500480,,,,,,
123058519242400,4157766936065,115,-44576,60864,153216,6592,198976,502464,,,,,,
123058519939600,4157767935815,116,-44768,61120,153760,7616,197760,502848,,,,,,
123058520964300,4157768936190,117,-44224,60896,153856,5184,195328,503296,,,,,,
123058522077800,4157769936274,118,-44576,61056,154368,7104,195008,505216,,,,,,
123058522944800,4157770936774,119,-44640,60960,154752,9152,196096,503296,,,,,,
123058523944000,4157771936649,120,-45376,61824,154624,8704,194880,503104,,,,,,
123058524946400,4157772935899,121,-45536,61376,155776,10752,196032,504640,,,,,,
123058525948100,4157773937107,122,-45920,62560,154784,9216,196032,505408,,,,,,
123058526945300,4157774936065,123,-45408,62176,156320,8960,196992,506880,,,,,,
123058527948700,4157775935815,124,-46080,62560,156256,10432,196416,503680,,,,,,
123058529079600,4157776935899,125,-45600,63392,156864,11136,197568,504640,,,,,,
123058529961400,4157777936024,126,-45664,63200,157344,12096,195328,505792,,,,,,
123058530943100,4157778935899,127,-45568,63616,157472,9152,196288,504832,,,,,,
123058532070900,4157779935982,128,-45344,64096,157408,10432,193408,506304,,,,,,
123058532947800,4157780935940,129,-45312,63968,158432,10752,196096,507520,,,,,,
123058534074500,4157781936107,130,-45568,64256,158848,10240,193536,507584,,,,,,
123058534948400,4157782935940,131,-45888,63872,159168,11776,195392,508736,,,,,,
123058535936900,4157783937232,132,-45952,64192,159904,11264,192448,510528,,,,,,
123058536942300,4157784935899,133,-46976,63552,160288,9216,195520,510080,,,,,,
123058537956500,4157785935982,134,-46336,63552,161056,10048,194624,510144,,,,,,
123058538947300,4157786935982,135,-47872,63936,160928,10688,194304,508672,,,,,,
123058540052400,4157787936399,136,-47968,63968,161696,10176,195328,508864,,,,,,
123058540938200,4157788936149,137,-48544,64256,161920,10944,196160,507584,,,,,,
123058542068800,4157789936024,138,-48032,64832,162464,8128,196864,507712,,,,,,
123058542939600,4157790937440,139,-47904,65184,162912,10496,196928,508160,,,,,,
123058544243600,4157791935857,140,-48384,65984,163680,8384,196032,508352,,,,,,
123058544987100,4157792936065,141,-47616,65376,164352,8960,194240,508672,,,,,,
123058545958900,4157793938065,142,-48576,65440,164704,8640,194880,510528,,,,,,
123058546949800,4157794936024,143,-48352,66144,165280,10944,196480,509376,,,,,,
123058547937800,4157795935815,144,-48800,65824,166400,9344,196224,509632,,,,,,
123058548943400,4157796936149,145,-48320,65824,166720,8192,195584,509504,,,,,,
123058549942300,4157797935940,146,-49568,65888,167104,8320,195648,510144,,,,,,
123058550944000,4157798935940,147,-49696,66144,166784,9088,195392,510208,,,,,,
123058552069000,4157799935815,148,-50432,65696,167904,9344,194880,511296,,,,,,
123058552937800,4157800935982,149,-50016,65792,168320,7488,193792,508928,,,,,,
123058553952400,4157801936232,150,-50656,66240,168832,9792,197376,506944,,,,,,
123058554943700,4157802935774,151,-51040,65824,170080,9152,197696,509184,,,,,,
123058555947500,4157803935899,152,-50656,66272,170688,10176,198528,506176,,,,,,
123058557068800,4157804936065,153,-50912,66240,170624,8128,197248,505728,,,,,,
123058557940000,4157805935815,154,-50656,66880,171712,9152,198272,507072,,,,,,
123058558941800,4157806935857,155,-50528,66624,171936,10432,195840,506880,,,,,,
123058559946200,4157807935815,156,-50912,66752,171552,12160,196608,508480,,,,,,
123058560931400,4157808935982,157,-50848,66880,172672,10176,195456,507648,,,,,,
123058562100000,4157809958857,158,-50656,66240,173408,9600,193984,507072,,,,,,
123058563083100,4157810936065,159,-51648,66208,173824,9472,195520,506560,,,,,,
123058563935400,4157811935857,160,-51648,65824,174080,11072,196096,510272,,,,,,
123058564933400,4157812935899,161,-52576,65984,174304,10240,195776,507584,,,,,,
123058565940500,4157813936065,162,-52704,65408,175168,10432,197696,506496,,,,,,
123058566947700,4157814935857,163,-52480,65888,176192,11008,193664,506048,,,,,,
123058567943200,4157815935982,164,-52256,65472,176704,7936,193728,505088,,,,,,
123058569253800,4157816935982,165,-52672,65600,177216,11072,194560,502400,,,,,,
123058569942400,4157817936982,166,-52416,65248,178112,10688,195392,504448,,,,,,
123058570950800,4157818936024,167,-52544,65440,178304,11584,193472,505792,,,,,,
123058572095500,4157819936065,168,-52992,65600,179040,12224,195328,505280,,,,,,
123058572932800,4157820935940,169,-52864,65888,178400,10496,193280,503296,,,,,,
123058573940900,4157821936065,170,-53024,65376,179744,10816,195392,507520,,,,,,
123058575065100,4157822936274,171,-52800,65408,180128,7808,191296,502144,,,,,,
123058575941600,4157823937524,172,-52480,65152,180768,8256,193088,504832,,,,,,
123058576940900,4157824937440,173,-53024,65216,180992,8960,193408,502016,,,,,,
123058577941100,4157825935899,174,-52640,65376,181504,11648,193024,500288,,,,,,
123058578950200,4157826935732,175,-52992,65760,181568,8448,192512,500928,,,,,,
123058579953700,4157827936024,176,-52576,65472,182944,8448,192000,497536,,,,,,
123058580945100,4157828935982,177,-52736,65888,182592,9024,192192,502528,,,,,,
123058582064600,4157829935940,178,-52064,65920,183264,9536,190464,502336,,,,,,
123058582942500,4157830935940,179,-51776,66144,184224,6336,191552,504000,,,,,,
123058583940900,4157831936065,180,-52000,66016,183776,6912,190912,501696,,,,,,
123058584945500,4157832935899,181,-51744,65952,184672,7296,188672,502464,,,,,,
123058585944300,4157833935982,182,-51456,65632,184864,5568,188736,503744,,,,,,
123058586937800,4157834936232,183,-51776,65696,184480,5504,188672,502656,,,,,,
123058587950000,4157835935982,184,-52096,65152,185248,3904,189824,502848,,,,,,
123058588940000,4157836935899,185,-52288,65152,185728,4288,188736,502272,,,,,,
123058589940500,4157837936815,186,-51904,64608,186080,1472,189184,502464,,,,,,
123058590945400,4157838935732,187,-52352,64192,186976,2688,189696,501056,,,,,,
123058592068700,4157839935899,188,-52224,64512,185536,1536,190592,501824,,,,,,
123058593072100,4157840937440,189,-51616,64256,186720,960,188800,499648,,,,,,
123058594247400,4157841937607,190,-51424,64736,186976,2048,189056,496960,,,,,,
123058594929800,4157842936024,191,-50720,64672,187776,320,190848,500224,,,,,,
123058595960200,4157843935940,192,-50304,64704,187008,256,188800,500544,,,,,,
123058596936000,4157844935899,193,-50592,64800,187328,1600,188800,499072,,,,,,
123058597932900,4157845935899,194,-49984,64896,187584,-2048,188096,499072,,,,,,
123058598930600,4157846935982,195,-49888,64576,187264,-1664,185664,497920,,,,,,
123058599932900,4157847935607,196,-49152,64288,188000,-3328,189760,498368,,,,,,
123058600948100,4157848935899,197,-49408,64064,187680,-2496,187712,497792,,,,,,
123058602061300,4157849935774,198,-49376,64192,187840,-4352,187200,497600,,,,,,
123058602948200,4157850936107,199,-49056,64256,187936,-4800,188032,497408,,,,,,
123058603962000,4157851935940,200,-49504,64352,187744,-3520,186496,497408,,,,,,
123058605059900,4157852935815,201,-48576,64320,188384,-6784,184640,497152,,,,,,
123058605942100,4157853935857,202,-48256,64448,188224,-3648,183680,500096,,,,,,
123058606941200,4157854935940,203,-47520,63808,188736,-6784,183360,496448,,,,,,
123058607941800,4157855935940,204,-48032,64192,188224,-6144,183168,497728,,,,,,
123058608938300,4157856935857,205,-47424,63808,188576,-5952,184448,499200,,,,,,
123058609942900,4157857936274,206,-47456,63264,188288,-9280,181056,500928,,,,,,
123058610934600,4157858935982,207,-48224,63232,187552,-7680,182656,503488,,,,,,
123058612064900,4157859935899,208,-47424,63520,187936,-9024,183488,502208,,,,,,
123058612951700,4157860935899,209,-48064,62688,187584,-9536,180992,501120,,,,,,
123058613936000,4157861935857,210,-47456,62784,188224,-7872,181632,503872,,,,,,
123058614940100,4157862937232,211,-47680,63264,187808,-8000,182912,501376,,,,,,
123058615940400,4157863936774,212,-47520,62976,188640,-5504,181248,502208,,,,,,
123058617066700,4157864938357,213,-47328,62944,188192,-4416,181504,498688,,,,,,
123058617941400,4157865938232,214,-46592,63488,188096,-6464,181568,501504,,,,,,
123058619244200,4157866935940,215,-45952,64128,188736,-5632,181440,501120,,,,,,
123058619946000,4157867935857,216,-46560,64320,188864,-5056,181568,500032,,,,,,
123058620948900,4157868935857,217,-45632,64096,187392,-5504,180736,503744,,,,,,
123058622060100,4157869935940,218,-46304,64128,188224,-4672,180864,502400,,,,,,
123058623054900,4157870936024,219,-45792,64320,188160,-5952,183040,503168,,,,,,
123058624067800,4157871937440,220,-45696,64032,189024,-6208,180864,502016,,,,,,
123058624943300,4157872935815,221,-45888,64736,188416,-4992,181632,501376,,,,,,
123058625986500,4157873936107,222,-46368,64800,188800,-4736,183168,503872,,,,,,
123058626942000,4157874935899,223,-46304,64704,188224,-3712,180480,503872,,,,,,
123058627935300,4157875935899,224,-46048,64480,188224,-4416,181888,504256,,,,,,
123058628952000,4157876935940,225,-46304,64736,188416,-3392,181888,507520,,,,,,
123058630063700,4157877936149,226,-45856,64320,188256,-3072,181312,505408,,,,,,
123058630939400,4157878935982,227,-45984,64544,188480,-1856,182272,506240,,,,,,
123058632067400,4157879935857,228,-45760,64192,188192,-3264,182272,505152,,,,,,
123058632946800,4157880935857,229,-46016,64384,187968,-4160,181440,506688,,,,,,
123058633943700,4157881936065,230,-46784,64128,187040,-6784,179904,506688,,,,,,
123058635070000,4157882936024,231,-46400,63808,187488,-3712,181952,509056,,,,,,
123058635997000,4157883935815,232,-47488,64096,187744,-6016,180544,507904,,,,,,
123058636933700,4157884935690,233,-47456,63040,187680,-4480,182208,507904,,,,,,
123058637954500,4157885936149,234,-47712,63840,187776,-4352,180352,504384,,,,,,
123058638938400,4157886935815,235,-48128,64448,187552,-3200,183232,506432,,,,,,
123058640063800,4157887935899,236,-47104,64832,187872,-5312,182720,505920,,,,,,
123058640943100,4157888938607,237,-47104,64640,188064,-5248,184128,504320,,,,,,
123058642067400,4157889937982,238,-46880,64864,187968,-6464,180864,502016,,,,,,
123058642946900,4157890936024,239,-47008,65504,187776,-6400,181952,503872,,,,,,
123058644254900,4157891935815,240,-46336,65984,187616,-5248,184832,505600,,,,,,
123058644949200,4157892936024,241,-47072,66528,188064,-7488,182976,504384,,,,,,
123058645957400,4157893936149,242,-47200,66368,187840,-8192,181760,508096,,,,,,
123058647084000,4157894936065,243,-47072,66432,187488,-4160,184064,506560,,,,,,
123058647939900,4157895935899,244,-47360,66848,187840,-7360,182208,503616,,,,,,
123058648946100,4157896935982,245,-47264,66848,187776,-6976,182272,506048,,,,,,
123058649932200,4157897936024,246,-47904,67712,187264,-8704,179712,505280,,,,,,
123058650933000,4157898937274,247,-47488,67552,186944,-7744,181760,507904,,,,,,
123058652058300,4157899935524,248,-47264,67808,186944,-7104,183104,504448,,,,,,
123058653058200,4157900937607,249,-47488,67392,187776,-7936,181504,506304,,,,,,
123058653948100,4157901935982,250,-47712,67840,187040,-8320,181568,509888,,,,,,
123058654939400,4157902935982,251,-48064,67712,186528,-10304,180352,507520,,,,,,
123058655940200,4157903935774,252,-48416,67008,186560,-10176,181376,511104,,,,,,
123058656940400,4157904936065,253,-47872,67104,186848,-11328,179648,507712,,,,,,
123058658073200,4157905935940,254,-48608,67104,186720,-10240,177536,508800,,,,,,
123058658983200,4157906935815,255,-47808,66464,186656,-7872,179328,509056,,,,,,
123058659941800,4157907935857,0,-48416,66816,185280,-8192,179456,511616,,,,,,
123058660931600,4157908936065,1,-48256,66432,185792,-8896,180480,507776,,,,,,
123058662092000,4157909936024,2,-48352,66688,185760,-9088,180160,507584,,,,,,
123058662943500,4157910935899,3,-48352,66176,185600,-10816,180800,507328,,,,,,
123058663929000,4157911936065,4,-48256,66592,185344,-9984,180992,508416,,,,,,
123058664940700,4157912937524,5,-47872,66720,185408,-8576,178880,509248,,,,,,
123058665941000,4157913935857,6,-48000,66176,185248,-9216,181632,507648,,,,,,
123058666943300,4157914936107,7,-48576,66432,184736,-12352,179712,506368,,,,,,
123058667945200,4157915935815,8,-48160,66240,185216,-9536,179072,508608,,,,,,
123058669040200,4157916935857,9,-48224,65888,185120,-10304,180288,508224,,,,,,
123058670082300,4157917935899,10,-48640,65664,184928,-9856,180800,508928,,,,,,
123058670955800,4157918935774,11,-48224,65504,184320,-11456,180608,504768,,,,,,
123058672069100,4157919936065,12,-48320,65600,184544,-10176,180992,509760,,,,,,
